#group,FALSE,FALSE,FALSE,FALSE,FALSE,FALSE,FALSE,FALSE,FALSE,FALSE,FALSE
#datatype,string,long,dateTime:RFC3339,double,double,double,double,double,double,double,double
#default,_result,,,,,,,,,,
,result,table,_time,Amag,Ax,Ay,Az,Gmag,Gx,Gy,Gz
,,0,2025-11-18T17:43:19.74Z,9.84,7.57,-5.96,2,7.7,-4.63,3.54,-5.02
,,0,2025-11-18T17:43:19.785Z,9.88,7.44,-6.2,1.93,9.12,-6.11,3.61,-5.73
,,0,2025-11-18T17:43:19.794Z,9.86,7.5,-6.12,1.89,9.23,-6.89,3.37,-5.12
,,0,2025-11-18T17:43:19.804Z,9.85,7.49,-6.1,1.93,9.35,-6.73,3.3,-5.6
,,0,2025-11-18T17:43:19.814Z,9.88,7.43,-6.23,1.93,8.91,-6.22,3.03,-5.62
,,0,2025-11-18T17:43:19.824Z,9.91,7.42,-6.28,1.92,7.93,-5.15,2.95,-5.26
,,0,2025-11-18T17:43:19.834Z,9.87,7.38,-6.27,1.91,7.62,-4.82,2.92,-5.14
,,0,2025-11-18T17:43:19.844Z,9.85,7.4,-6.22,1.88,7.3,-3.96,2.53,-5.58
,,0,2025-11-18T17:43:19.854Z,9.88,7.36,-6.32,1.87,7.1,-4.27,2.63,-5.02
,,0,2025-11-18T17:43:19.864Z,9.91,7.35,-6.36,1.95,6.79,-3.44,2.64,-5.22
,,0,2025-11-18T17:43:19.874Z,10.13,7.46,-6.51,2.13,6.59,-2.76,2.53,-5.42
,,0,2025-11-18T17:43:19.884Z,10.09,7.43,-6.48,2.17,6.69,-1.88,2.27,-6.01
,,0,2025-11-18T17:43:19.894Z,10.09,7.44,-6.45,2.19,5.51,-0.85,1.87,-5.11
,,0,2025-11-18T17:43:19.904Z,10.11,7.47,-6.41,2.29,5.68,-1,1.97,-5.24
,,0,2025-11-18T17:43:19.914Z,10.03,7.46,-6.31,2.25,5.69,-1.55,1.66,-5.21
,,0,2025-11-18T17:43:19.924Z,10.02,7.5,-6.27,2.2,5.28,-1.74,1.73,-4.68
,,0,2025-11-18T17:43:19.934Z,10.03,7.54,-6.25,2.17,5.75,-2.18,2.17,-4.86
,,0,2025-11-18T17:43:19.944Z,9.94,7.47,-6.24,2.03,5.39,-2,2.36,-4.42
,,0,2025-11-18T17:43:19.954Z,9.94,7.47,-6.22,2.07,5.73,-1.57,2.33,-4.99
,,0,2025-11-18T17:43:19.964Z,9.92,7.5,-6.18,2.02,6.13,-1.44,2.27,-5.51
,,0,2025-11-18T17:43:19.974Z,9.86,7.49,-6.1,1.99,6.42,-1.19,2.41,-5.82
,,0,2025-11-18T17:43:19.984Z,9.87,7.45,-6.16,2,6.52,-1.4,2.4,-5.9
,,0,2025-11-18T17:43:19.994Z,9.83,7.46,-6.08,1.99,6.54,-1.85,2.46,-5.77
,,0,2025-11-18T17:43:20.004Z,9.8,7.43,-6.09,1.94,6.82,-2.95,2.68,-5.53
,,0,2025-11-18T17:43:20.014Z,9.79,7.4,-6.1,1.95,7.11,-3.96,2.4,-5.39
,,0,2025-11-18T17:43:20.024Z,9.85,7.39,-6.24,1.88,6.8,-3.77,2.15,-5.24
,,0,2025-11-18T17:43:20.034Z,9.82,7.36,-6.2,1.98,6.9,-3.74,1.51,-5.6
,,0,2025-11-18T17:43:20.044Z,9.85,7.38,-6.22,1.96,6.55,-3.69,1.44,-5.22
,,0,2025-11-18T17:43:20.054Z,9.98,7.45,-6.31,2.08,6.5,-3.56,1.72,-5.16
,,0,2025-11-18T17:43:20.064Z,9.93,7.39,-6.33,1.98,6.87,-3.64,1.52,-5.62
,,0,2025-11-18T17:43:20.074Z,9.81,7.39,-6.15,1.94,6.89,-4.6,1.54,-4.89
,,0,2025-11-18T17:43:20.084Z,9.81,7.44,-6.1,1.95,7.59,-5.6,2,-4.72
,,0,2025-11-18T17:43:20.094Z,9.96,7.45,-6.3,1.99,7.97,-6.34,2.28,-4.27
,,0,2025-11-18T17:43:20.104Z,9.99,7.44,-6.36,1.99,7.73,-5.53,2.37,-4.85
,,0,2025-11-18T17:43:20.114Z,10.01,7.43,-6.41,1.99,6.45,-4.21,2,-4.46
,,0,2025-11-18T17:43:20.124Z,9.96,7.45,-6.28,2.08,6.89,-3.82,2.43,-5.19
,,0,2025-11-18T17:43:20.134Z,9.92,7.43,-6.25,2.02,6.97,-4.11,2.39,-5.1
,,0,2025-11-18T17:43:20.144Z,9.93,7.38,-6.3,2.1,6.82,-4.33,2.3,-4.75
,,0,2025-11-18T17:43:20.154Z,9.84,7.38,-6.2,2,6.42,-4.04,2.06,-4.54
,,0,2025-11-18T17:43:20.164Z,9.82,7.39,-6.16,2.01,6.94,-5.24,2.1,-4.04
,,0,2025-11-18T17:43:20.174Z,9.87,7.44,-6.19,1.96,6.71,-5.01,2.24,-3.86
,,0,2025-11-18T17:43:20.184Z,9.93,7.48,-6.23,1.97,7.2,-5.44,2.22,-4.16
,,0,2025-11-18T17:43:20.194Z,9.79,7.4,-6.09,2.02,7.49,-5.71,2.05,-4.39
,,0,2025-11-18T17:43:20.204Z,9.85,7.41,-6.16,2.01,7.27,-5.11,2.14,-4.71
,,0,2025-11-18T17:43:20.214Z,9.87,7.4,-6.22,1.97,7.35,-5.44,2.08,-4.49
,,0,2025-11-18T17:43:20.224Z,9.87,7.42,-6.19,2.02,7.63,-5.37,2.09,-5
,,0,2025-11-18T17:43:20.234Z,9.9,7.41,-6.28,1.9,7.55,-5.41,1.44,-5.07
,,0,2025-11-18T17:43:20.244Z,9.92,7.43,-6.27,1.95,7.42,-5.39,1.17,-4.97
,,0,2025-11-18T17:43:20.254Z,10.05,7.48,-6.43,1.93,7.54,-5.72,0.85,-4.85
,,0,2025-11-18T17:43:20.264Z,9.93,7.5,-6.23,1.86,7.16,-5.47,1.03,-4.5
,,0,2025-11-18T17:43:20.274Z,10.11,7.52,-6.42,2.13,7.52,-5.15,1.88,-5.15
,,0,2025-11-18T17:43:20.284Z,10.08,7.45,-6.44,2.18,6.45,-3.94,1.33,-4.93
,,0,2025-11-18T17:43:20.294Z,9.98,7.49,-6.24,2.11,6.24,-3.52,1.51,-4.92
,,0,2025-11-18T17:43:20.304Z,9.98,7.51,-6.19,2.19,6.3,-3.47,1.76,-4.96
,,0,2025-11-18T17:43:20.314Z,10.05,7.49,-6.33,2.2,6.07,-2.58,1.89,-5.16
,,0,2025-11-18T17:43:20.324Z,9.91,7.43,-6.24,2.02,5.92,-2.79,1.81,-4.9
,,0,2025-11-18T17:43:20.334Z,9.84,7.46,-6.1,2.01,6.48,-3.5,1.92,-5.11
,,0,2025-11-18T17:43:20.344Z,9.96,7.52,-6.26,1.88,7,-3.82,2.26,-5.42
,,0,2025-11-18T17:43:20.354Z,9.98,7.45,-6.33,2,6.57,-3.35,2.5,-5.08
,,0,2025-11-18T17:43:20.364Z,9.88,7.46,-6.22,1.84,6.44,-3.2,2.28,-5.1
,,0,2025-11-18T17:43:20.374Z,9.83,7.45,-6.16,1.79,6.39,-3.24,2.79,-4.74
,,0,2025-11-18T17:43:20.384Z,9.9,7.42,-6.29,1.85,6.74,-3.23,3.04,-5.08
,,0,2025-11-18T17:43:20.394Z,9.91,7.37,-6.33,1.93,6.46,-2.43,2.57,-5.4
,,0,2025-11-18T17:43:20.404Z,9.8,7.38,-6.14,1.93,6.25,-2.31,2.21,-5.37
,,0,2025-11-18T17:43:20.414Z,9.84,7.44,-6.16,1.9,6.61,-3.04,2.67,-5.23
,,0,2025-11-18T17:43:20.424Z,9.9,7.42,-6.23,2,6.84,-3.27,2.31,-5.55
,,0,2025-11-18T17:43:20.434Z,9.8,7.35,-6.17,1.96,6.68,-4.36,1.58,-4.81
,,0,2025-11-18T17:43:20.444Z,9.92,7.49,-6.21,1.93,6.95,-4.14,1.91,-5.24
,,0,2025-11-18T17:43:20.454Z,10.1,7.5,-6.45,2.03,6.97,-3.89,1.99,-5.43
,,0,2025-11-18T17:43:20.464Z,10.05,7.44,-6.46,2.02,6.68,-3.16,2.19,-5.47
,,0,2025-11-18T17:43:20.474Z,9.96,7.48,-6.24,2.08,6.28,-2.17,1.79,-5.62
,,0,2025-11-18T17:43:20.484Z,9.98,7.46,-6.3,2.07,6.1,-2.6,2.18,-5.07
,,0,2025-11-18T17:43:20.494Z,9.95,7.44,-6.25,2.14,5.98,-2.26,2.41,-4.98
,,0,2025-11-18T17:43:20.504Z,9.87,7.4,-6.2,2.09,5.98,-2.31,1.89,-5.18
,,0,2025-11-18T17:43:20.514Z,9.85,7.38,-6.19,2.09,5.77,-2.63,1.64,-4.87
,,0,2025-11-18T17:43:20.524Z,9.85,7.46,-6.1,2.03,6.16,-3.08,1.92,-4.98
,,0,2025-11-18T17:43:20.534Z,9.88,7.43,-6.19,1.99,6.38,-2.88,2.41,-5.16
,,0,2025-11-18T17:43:20.544Z,9.83,7.38,-6.2,1.95,6.72,-3.21,2.05,-5.54
,,0,2025-11-18T17:43:20.554Z,9.83,7.47,-6.11,1.87,5.91,-2.83,2.27,-4.66
,,0,2025-11-18T17:43:20.564Z,9.96,7.46,-6.31,1.94,6.49,-2.99,2.48,-5.2
,,0,2025-11-18T17:43:20.574Z,9.87,7.35,-6.3,1.91,6.39,-2.95,2.05,-5.28
,,0,2025-11-18T17:43:20.584Z,9.92,7.42,-6.25,2.02,5.82,-2.99,1.89,-4.63
,,0,2025-11-18T17:43:20.594Z,9.99,7.47,-6.32,2.04,6.28,-3.44,1.63,-5
,,0,2025-11-18T17:43:20.604Z,9.95,7.46,-6.27,1.99,6.12,-3.23,1.89,-4.85
,,0,2025-11-18T17:43:20.614Z,9.89,7.46,-6.2,1.95,5.97,-3.73,1.6,-4.38
,,0,2025-11-18T17:43:20.624Z,9.8,7.42,-6.12,1.89,6.37,-4.5,2.03,-4.03
,,0,2025-11-18T17:43:20.634Z,9.92,7.42,-6.29,1.96,6.84,-4.57,2.6,-4.37
,,0,2025-11-18T17:43:20.644Z,9.89,7.41,-6.25,1.97,6.52,-4.24,2.11,-4.48
,,0,2025-11-18T17:43:20.654Z,9.96,7.49,-6.27,1.94,6.9,-4.12,2.48,-4.95
,,0,2025-11-18T17:43:20.664Z,9.98,7.49,-6.26,2.06,6.69,-3.66,2.66,-4.93
,,0,2025-11-18T17:43:20.674Z,9.87,7.41,-6.21,2.01,6.7,-3.29,3.07,-4.97
,,0,2025-11-18T17:43:20.684Z,10,7.48,-6.3,2.11,6.66,-3.65,3.11,-4.63
,,0,2025-11-18T17:43:20.694Z,9.89,7.37,-6.22,2.18,6.7,-3.86,2.87,-4.66
,,0,2025-11-18T17:43:20.704Z,9.94,7.46,-6.21,2.13,6.95,-3.79,2.98,-5
,,0,2025-11-18T17:43:20.714Z,9.87,7.44,-6.16,2.03,7.17,-4.64,2.69,-4.76
,,0,2025-11-18T17:43:20.724Z,9.8,7.41,-6.11,1.95,7.34,-4.9,3.04,-4.55
,,0,2025-11-18T17:43:20.734Z,10,7.43,-6.36,2.08,7.49,-4.89,3.11,-4.75
,,0,2025-11-18T17:43:20.744Z,9.85,7.38,-6.24,1.92,6.31,-3.69,2.32,-4.56
,,0,2025-11-18T17:43:20.754Z,9.81,7.38,-6.18,1.91,6.13,-3.65,2.56,-4.21
,,0,2025-11-18T17:43:20.764Z,9.85,7.44,-6.15,1.99,7.09,-4.49,2.5,-4.89
,,0,2025-11-18T17:43:20.774Z,9.84,7.41,-6.18,1.93,7.15,-4.27,2.85,-4.97
,,0,2025-11-18T17:43:20.784Z,9.86,7.37,-6.23,2.04,6.78,-3.98,2.43,-4.93
,,0,2025-11-18T17:43:20.794Z,9.92,7.4,-6.29,2.01,6.74,-3.64,1.64,-5.43
,,0,2025-11-18T17:43:20.804Z,9.93,7.47,-6.23,1.99,6.7,-4.12,1.44,-5.08
,,0,2025-11-18T17:43:20.814Z,9.93,7.45,-6.24,2.08,6.94,-4.68,0.83,-5.05
,,0,2025-11-18T17:43:20.824Z,9.93,7.49,-6.24,1.9,7.45,-5.62,0.82,-4.82
,,0,2025-11-18T17:43:20.834Z,9.92,7.49,-6.2,1.95,7.13,-5.24,1.41,-4.63
,,0,2025-11-18T17:43:20.844Z,9.98,7.43,-6.33,2.07,7.49,-5.26,1.11,-5.21
,,0,2025-11-18T17:43:20.854Z,9.95,7.45,-6.27,2.05,7.01,-4.08,1.14,-5.59
,,0,2025-11-18T17:43:20.864Z,9.82,7.4,-6.13,2.04,6.76,-3.83,1.16,-5.45
,,0,2025-11-18T17:43:20.874Z,9.94,7.46,-6.22,2.07,7.12,-3.82,1.6,-5.79
,,0,2025-11-18T17:43:20.884Z,9.89,7.46,-6.16,2.07,6.94,-3.95,1.92,-5.37
,,0,2025-11-18T17:43:20.894Z,9.96,7.46,-6.27,2.06,7.3,-4.21,2.25,-5.52
,,0,2025-11-18T17:43:20.904Z,9.9,7.5,-6.14,1.98,7.25,-4.6,2.36,-5.08
,,0,2025-11-18T17:43:20.914Z,10.03,7.54,-6.32,1.95,7.79,-4.49,3.36,-5.41
,,0,2025-11-18T17:43:20.924Z,9.98,7.43,-6.37,1.97,7.97,-3.82,3.52,-6.05
,,0,2025-11-18T17:43:20.934Z,9.94,7.43,-6.28,2.05,7.4,-3.11,3.05,-5.98
,,0,2025-11-18T17:43:20.944Z,9.9,7.39,-6.29,1.95,6.76,-2.87,2.38,-5.64
,,0,2025-11-18T17:43:20.954Z,9.82,7.41,-6.15,1.92,7.07,-3.7,2.39,-5.53
,,0,2025-11-18T17:43:20.964Z,9.79,7.36,-6.2,1.81,7.42,-4.84,2.49,-5.05
,,0,2025-11-18T17:43:20.974Z,9.75,7.3,-6.22,1.76,6.92,-4.88,1.83,-4.56
,,0,2025-11-18T17:43:20.984Z,9.89,7.4,-6.29,1.85,7.17,-5.31,1.79,-4.47
,,0,2025-11-18T17:43:20.994Z,9.91,7.37,-6.36,1.84,6.95,-4.78,1.76,-4.73
,,0,2025-11-18T17:43:21.004Z,9.9,7.35,-6.33,1.95,6.68,-4.39,1.25,-4.88
,,0,2025-11-18T17:43:21.014Z,9.97,7.41,-6.33,2.11,6.96,-4.05,1.59,-5.44
,,0,2025-11-18T17:43:21.024Z,10.08,7.49,-6.4,2.15,6.33,-3.21,1.63,-5.21
,,0,2025-11-18T17:43:21.034Z,10,7.47,-6.29,2.14,6.41,-3.47,1.44,-5.2
,,0,2025-11-18T17:43:21.044Z,9.94,7.45,-6.2,2.21,6.62,-4.25,1.7,-4.79
,,0,2025-11-18T17:43:21.054Z,9.99,7.44,-6.33,2.11,6.73,-4.37,1.44,-4.91
,,0,2025-11-18T17:43:21.064Z,10.06,7.47,-6.4,2.08,5.78,-3.38,1.26,-4.52
,,0,2025-11-18T17:43:21.074Z,9.94,7.41,-6.29,2.07,5.99,-3.21,1.07,-4.95
,,0,2025-11-18T17:43:21.084Z,9.9,7.46,-6.2,2,5.75,-3.32,1.39,-4.49
,,0,2025-11-18T17:43:21.094Z,9.98,7.49,-6.27,2.03,6.12,-3.79,1.73,-4.49
,,0,2025-11-18T17:43:21.104Z,9.81,7.34,-6.2,1.96,5.97,-3.34,2.02,-4.51
,,0,2025-11-18T17:43:21.114Z,9.85,7.39,-6.19,2.01,5.71,-2.64,1.86,-4.7
,,0,2025-11-18T17:43:21.124Z,9.8,7.35,-6.19,1.94,5.95,-2.95,1.87,-4.82
,,0,2025-11-18T17:43:21.134Z,9.91,7.44,-6.25,1.98,5.91,-2.38,1.61,-5.16
,,0,2025-11-18T17:43:21.144Z,9.99,7.44,-6.38,1.95,6.06,-1.76,1.42,-5.62
,,0,2025-11-18T17:43:21.154Z,9.94,7.38,-6.4,1.87,5.43,-1.18,0.54,-5.27
,,0,2025-11-18T17:43:21.164Z,9.91,7.44,-6.27,1.9,5.35,-0.81,0.66,-5.24
,,0,2025-11-18T17:43:21.174Z,9.91,7.45,-6.27,1.85,5.31,-1.41,0.75,-5.07
,,0,2025-11-18T17:43:21.184Z,9.74,7.35,-6.15,1.72,5.35,-2.26,0.91,-4.76
,,0,2025-11-18T17:43:21.194Z,9.96,7.47,-6.31,1.88,5.29,-2.46,1.28,-4.5
,,0,2025-11-18T17:43:21.204Z,9.94,7.41,-6.35,1.92,5.82,-1.81,1.15,-5.41
,,0,2025-11-18T17:43:21.214Z,9.86,7.39,-6.21,2,5.94,-1.57,0.92,-5.66
,,0,2025-11-18T17:43:21.224Z,9.83,7.43,-6.12,1.99,5.7,-1.4,1.05,-5.43
,,0,2025-11-18T17:43:21.234Z,9.85,7.41,-6.17,2.01,6.35,-2.24,1.24,-5.81
,,0,2025-11-18T17:43:21.244Z,9.93,7.45,-6.24,2.03,6.07,-2.09,1.48,-5.5
,,0,2025-11-18T17:43:21.254Z,9.99,7.47,-6.3,2.07,6.01,-2.52,1.32,-5.29
,,0,2025-11-18T17:43:21.264Z,9.94,7.41,-6.3,2.06,5.45,-2.02,1.45,-4.85
,,0,2025-11-18T17:43:21.274Z,9.9,7.47,-6.18,2,5.74,-2.74,1.84,-4.69
,,0,2025-11-18T17:43:21.284Z,9.95,7.4,-6.32,2.06,6.24,-2.63,1.68,-5.4
,,0,2025-11-18T17:43:21.294Z,9.94,7.42,-6.29,2.02,6.06,-2.24,1.83,-5.33
,,0,2025-11-18T17:43:21.304Z,9.93,7.42,-6.29,2.03,5.77,-1.81,1,-5.38
,,0,2025-11-18T17:43:21.314Z,9.86,7.46,-6.14,1.98,5.84,-2.34,0.82,-5.28
,,0,2025-11-18T17:43:21.324Z,9.87,7.47,-6.19,1.85,5.83,-2.59,0.86,-5.15
,,0,2025-11-18T17:43:21.334Z,9.92,7.39,-6.32,1.96,6.06,-2.44,0.8,-5.49
,,0,2025-11-18T17:43:21.344Z,9.83,7.34,-6.25,1.97,5.32,-1.76,0.37,-5.01
,,0,2025-11-18T17:43:21.354Z,9.93,7.43,-6.28,1.99,5.78,-1.31,0.54,-5.6
,,0,2025-11-18T17:43:21.364Z,9.99,7.44,-6.32,2.13,6.33,-1.5,0.5,-6.13
,,0,2025-11-18T17:43:21.374Z,9.94,7.44,-6.27,2.07,6.09,-0.88,0.04,-6.02
,,0,2025-11-18T17:43:21.384Z,9.97,7.43,-6.28,2.19,5.85,-0.92,-0.47,-5.76
,,0,2025-11-18T17:43:21.394Z,9.89,7.45,-6.16,2.06,6.43,-2.18,-0.59,-6.02
,,0,2025-11-18T17:43:21.404Z,9.99,7.51,-6.28,2,6.07,-2.48,-0.87,-5.47
,,0,2025-11-18T17:43:21.414Z,9.93,7.51,-6.18,1.99,6.22,-2.99,-0.71,-5.41
,,0,2025-11-18T17:43:21.424Z,10.03,7.57,-6.29,1.93,5.96,-2.53,-0.09,-5.4
,,0,2025-11-18T17:43:21.434Z,10.01,7.53,-6.32,1.91,6.01,-1.48,-0.19,-5.82
,,0,2025-11-18T17:43:21.444Z,9.95,7.43,-6.29,2.04,6.11,-0.4,0.24,-6.09
,,0,2025-11-18T17:43:21.454Z,9.98,7.48,-6.26,2.12,6.47,0.15,0.29,-6.47
,,0,2025-11-18T17:43:21.464Z,9.85,7.46,-6.11,2.03,5.88,-0.02,0.71,-5.83
,,0,2025-11-18T17:43:21.474Z,9.95,7.49,-6.2,2.13,6.02,0.01,0.85,-5.96
,,0,2025-11-18T17:43:21.484Z,9.86,7.37,-6.23,2.03,6.01,-0.4,0.31,-5.99
,,0,2025-11-18T17:43:21.494Z,9.89,7.43,-6.2,2.06,5.84,-0.18,0.94,-5.76
,,0,2025-11-18T17:43:21.504Z,9.84,7.43,-6.15,1.94,5.41,-0.34,0.56,-5.37
,,0,2025-11-18T17:43:21.514Z,9.87,7.42,-6.21,1.93,6.18,-0.56,0.21,-6.15
,,0,2025-11-18T17:43:21.524Z,9.8,7.42,-6.13,1.86,6.49,-0.53,0.48,-6.45
,,0,2025-11-18T17:43:21.534Z,9.88,7.44,-6.2,1.94,6.11,-0.58,0.46,-6.07
,,0,2025-11-18T17:43:21.544Z,9.76,7.34,-6.15,1.89,6.49,-0.79,0.61,-6.41
,,0,2025-11-18T17:43:21.554Z,9.88,7.39,-6.25,1.96,6.36,-0.6,0.26,-6.33
,,0,2025-11-18T17:43:21.564Z,9.88,7.43,-6.24,1.87,6.4,-1.08,0.01,-6.31
,,0,2025-11-18T17:43:21.574Z,9.83,7.42,-6.15,1.97,6.39,-1.44,-0.15,-6.22
,,0,2025-11-18T17:43:21.584Z,9.98,7.51,-6.29,1.92,6.17,-1.54,0.21,-5.97
,,0,2025-11-18T17:43:21.594Z,10.1,7.51,-6.42,2.06,6.6,-0.89,-0.34,-6.53
,,0,2025-11-18T17:43:21.604Z,10.11,7.49,-6.47,2.03,6.44,-0.34,-0.37,-6.42
,,0,2025-11-18T17:43:21.614Z,9.9,7.41,-6.23,2.04,6.13,-0.52,-0.79,-6.06
,,0,2025-11-18T17:43:21.624Z,9.89,7.49,-6.11,2.11,5.71,-1.14,-0.73,-5.55
,,0,2025-11-18T17:43:21.634Z,9.88,7.46,-6.14,2.06,6.12,-2.2,-0.41,-5.69
,,0,2025-11-18T17:43:21.644Z,9.82,7.43,-6.11,1.98,5.8,-2.53,-0.17,-5.21
,,0,2025-11-18T17:43:21.654Z,9.92,7.49,-6.16,2.09,5.94,-2.76,0.02,-5.27
,,0,2025-11-18T17:43:21.664Z,9.95,7.5,-6.21,2.02,6.23,-2.17,0.38,-5.82
,,0,2025-11-18T17:43:21.674Z,9.98,7.53,-6.24,1.99,6.31,-1.44,0.1,-6.14
,,0,2025-11-18T17:43:21.684Z,10.02,7.57,-6.22,2.09,6.47,-0.62,0.79,-6.4
,,0,2025-11-18T17:43:21.694Z,9.94,7.49,-6.19,2.09,6.49,-0.11,0.63,-6.46
,,0,2025-11-18T17:43:21.704Z,9.82,7.42,-6.11,2,6.75,0.38,0.16,-6.74
,,0,2025-11-18T17:43:21.714Z,9.78,7.41,-6.08,1.93,6.68,0.1,-0.19,-6.67
,,0,2025-11-18T17:43:21.724Z,9.74,7.4,-6.06,1.85,6.51,-0.85,0.02,-6.46
,,0,2025-11-18T17:43:21.734Z,9.68,7.38,-5.98,1.85,5.93,-0.99,-0.15,-5.84
,,0,2025-11-18T17:43:21.744Z,9.85,7.41,-6.2,1.89,5.55,-1.04,-0.47,-5.43
,,0,2025-11-18T17:43:21.754Z,9.84,7.4,-6.18,1.93,5.82,-0.52,-0.98,-5.71
,,0,2025-11-18T17:43:21.764Z,9.99,7.44,-6.34,2.05,5.89,-0.2,-0.92,-5.82
,,0,2025-11-18T17:43:21.774Z,9.93,7.48,-6.23,1.94,5.81,-0.38,-1.09,-5.69
,,0,2025-11-18T17:43:21.784Z,9.99,7.54,-6.19,2.13,6.09,-1.11,-1.27,-5.85
,,0,2025-11-18T17:43:21.94Z,9.81,7.43,-6.13,1.88,5.49,-1.68,-0.47,-5.21
,,0,2025-11-18T17:43:21.948Z,9.91,7.57,-6.11,1.88,5.74,-2.3,-0.67,-5.21
,,0,2025-11-18T17:43:21.958Z,9.94,7.63,-6.08,1.93,5.8,-2.79,-0.05,-5.08
,,0,2025-11-18T17:43:21.968Z,10.09,7.58,-6.36,1.98,6.39,-2.89,0.07,-5.7
,,0,2025-11-18T17:43:21.978Z,10.14,7.6,-6.42,2,6.29,-1.73,-0.07,-6.05
,,0,2025-11-18T17:43:21.988Z,10.11,7.71,-6.21,2.08,6.13,-1.89,-0.01,-5.83
,,0,2025-11-18T17:43:21.998Z,10.03,7.65,-6.15,2.07,5.61,-2.38,0.31,-5.07
,,0,2025-11-18T17:43:22.008Z,10.04,7.59,-6.2,2.15,5.95,-2.26,0.53,-5.48
,,0,2025-11-18T17:43:22.018Z,9.9,7.54,-6.07,2.1,5.76,-2.16,0.75,-5.29
,,0,2025-11-18T17:43:22.028Z,9.93,7.54,-6.1,2.09,6.04,-1.92,0.5,-5.7
,,0,2025-11-18T17:43:22.038Z,9.76,7.43,-6.01,1.98,6,-1.98,0.67,-5.63
,,0,2025-11-18T17:43:22.048Z,9.68,7.43,-5.91,1.89,5.88,-2.02,0.84,-5.46
,,0,2025-11-18T17:43:22.058Z,9.85,7.48,-6.1,1.98,6.15,-2.03,0.89,-5.74
,,0,2025-11-18T17:43:22.068Z,9.82,7.41,-6.15,1.94,6.29,-1.18,0.61,-6.15
,,0,2025-11-18T17:43:22.078Z,9.88,7.55,-6.1,1.86,6.1,-1.43,0.13,-5.93
,,0,2025-11-18T17:43:22.088Z,9.82,7.55,-5.99,1.87,6.13,-2.23,0.19,-5.7
,,0,2025-11-18T17:43:22.098Z,9.84,7.49,-6.1,1.9,6.35,-3,0.4,-5.58
,,0,2025-11-18T17:43:22.108Z,9.82,7.45,-6.12,1.86,5.81,-2.78,0.17,-5.1
,,0,2025-11-18T17:43:22.118Z,9.77,7.42,-6.08,1.84,6.16,-3.26,0.06,-5.22
,,0,2025-11-18T17:43:22.128Z,9.88,7.48,-6.15,1.93,5.96,-3.18,-0.14,-5.04
,,0,2025-11-18T17:43:22.138Z,9.9,7.47,-6.21,1.93,6.18,-2.79,-0.26,-5.5
,,0,2025-11-18T17:43:22.148Z,9.87,7.49,-6.12,1.98,6.83,-3.79,-0.62,-5.65
,,0,2025-11-18T17:43:22.158Z,9.92,7.61,-6.04,2.01,7.36,-4.11,-0.74,-6.05
,,0,2025-11-18T17:43:22.168Z,10.03,7.64,-6.22,1.91,7.63,-4.67,-0.2,-6.03
,,0,2025-11-18T17:43:22.178Z,9.95,7.62,-6.1,1.94,8.12,-5.24,0.19,-6.21
,,0,2025-11-18T17:43:22.188Z,10.05,7.63,-6.19,2.1,7.91,-5.36,0.6,-5.79
,,0,2025-11-18T17:43:22.198Z,10.03,7.62,-6.21,2.01,7.42,-4.61,0.3,-5.8
,,0,2025-11-18T17:43:22.208Z,9.99,7.65,-6.05,2.13,7.44,-4.48,0.89,-5.87
,,0,2025-11-18T17:43:22.218Z,10,7.65,-6.09,2.1,7.15,-4.19,0.83,-5.73
,,0,2025-11-18T17:43:22.228Z,9.98,7.65,-6.06,2.1,6.98,-3.94,0.63,-5.73
,,0,2025-11-18T17:43:22.238Z,9.91,7.64,-5.99,1.95,7.4,-4.16,0.71,-6.08
,,0,2025-11-18T17:43:22.248Z,9.89,7.64,-5.97,1.94,7.94,-4.61,0.66,-6.44
,,0,2025-11-18T17:43:22.258Z,9.98,7.68,-6.07,1.94,8.47,-4.98,0.63,-6.82
,,0,2025-11-18T17:43:22.268Z,9.89,7.65,-6.02,1.79,8.06,-5.24,0.47,-6.11
,,0,2025-11-18T17:43:22.278Z,9.87,7.62,-6,1.83,8.38,-5.08,0.5,-6.64
,,0,2025-11-18T17:43:22.288Z,9.94,7.65,-6.01,2.02,8.84,-5.21,0.76,-7.11
,,0,2025-11-18T17:43:22.298Z,9.8,7.58,-5.92,1.91,8.34,-4.67,0.69,-6.87
,,0,2025-11-18T17:43:22.308Z,9.84,7.54,-5.98,2.02,8.33,-4.76,0.56,-6.81
,,0,2025-11-18T17:43:22.318Z,9.79,7.55,-5.89,2.02,8.77,-4.82,0.99,-7.26
,,0,2025-11-18T17:43:22.328Z,9.87,7.58,-5.98,2.06,8.48,-4.57,1.02,-7.07
,,0,2025-11-18T17:43:22.338Z,9.91,7.53,-6.12,2.01,8.56,-4.68,0.84,-7.12
,,0,2025-11-18T17:43:22.348Z,9.94,7.64,-6.05,1.95,8.41,-4.59,0.71,-7.02
,,0,2025-11-18T17:43:22.358Z,9.93,7.64,-6.03,1.94,8.83,-4.66,0.95,-7.44
,,0,2025-11-18T17:43:22.368Z,9.97,7.63,-6.14,1.9,9.01,-4.96,1.5,-7.37
,,0,2025-11-18T17:43:22.378Z,10.03,7.65,-6.19,1.97,9.36,-5.24,1.88,-7.52
,,0,2025-11-18T17:43:22.388Z,10.03,7.66,-6.18,1.9,9.29,-4.66,2.23,-7.72
,,0,2025-11-18T17:43:22.398Z,9.99,7.64,-6.14,1.94,9.12,-4.85,2.3,-7.38
,,0,2025-11-18T17:43:22.408Z,9.93,7.6,-6.1,1.88,9.28,-5.02,2.41,-7.42
,,0,2025-11-18T17:43:22.418Z,9.93,7.6,-6.1,1.9,9.5,-5.37,2.82,-7.31
,,0,2025-11-18T17:43:22.428Z,9.97,7.57,-6.18,1.96,9.84,-5.19,3.53,-7.58
,,0,2025-11-18T17:43:22.438Z,9.85,7.49,-6.11,1.93,9.14,-5.01,2.5,-7.22
,,0,2025-11-18T17:43:22.448Z,9.77,7.45,-6.01,1.94,9.38,-5.7,2.96,-6.83
,,0,2025-11-18T17:43:22.458Z,9.86,7.52,-6.13,1.75,9.36,-6.01,3.08,-6.49
,,0,2025-11-18T17:43:22.468Z,10.02,7.56,-6.33,1.78,8.78,-6.48,3.02,-5.09
,,0,2025-11-18T17:43:22.478Z,9.93,7.55,-6.22,1.66,9.18,-7.23,2.99,-4.81
,,0,2025-11-18T17:43:22.488Z,10.04,7.56,-6.33,1.9,9.68,-7.64,3.86,-4.52
,,0,2025-11-18T17:43:22.498Z,10,7.45,-6.39,1.94,9.46,-7.5,3.79,-4.34
,,0,2025-11-18T17:43:22.508Z,9.95,7.41,-6.36,1.92,8.7,-6.66,3.41,-4.44
,,0,2025-11-18T17:43:22.518Z,9.94,7.39,-6.33,2.02,8.14,-6.21,3.34,-4.06
,,0,2025-11-18T17:43:22.528Z,9.8,7.35,-6.22,1.85,7.44,-5.69,2.82,-3.86
,,0,2025-11-18T17:43:22.538Z,9.69,7.29,-6.14,1.74,8.13,-6.82,2.82,-3.39
,,0,2025-11-18T17:43:22.548Z,9.6,7.25,-6.05,1.74,8.54,-7.55,2.88,-2.78
,,0,2025-11-18T17:43:22.558Z,9.66,7.23,-6.16,1.77,9.04,-8.33,2.22,-2.74
,,0,2025-11-18T17:43:22.568Z,9.66,7.24,-6.1,1.93,9.13,-8.4,2.18,-2.86
,,0,2025-11-18T17:43:22.578Z,9.73,7.32,-6.12,1.9,8.54,-7.76,2.17,-2.83
,,0,2025-11-18T17:43:22.588Z,9.82,7.35,-6.19,2.04,7.74,-6.49,2.73,-3.22
,,0,2025-11-18T17:43:22.598Z,9.77,7.3,-6.15,2.08,7.59,-6.47,2.61,-3.01
,,0,2025-11-18T17:43:22.608Z,9.82,7.32,-6.22,2.04,6.85,-5.7,2.63,-2.73
,,0,2025-11-18T17:43:22.618Z,9.98,7.49,-6.28,2.03,6.7,-5.11,3.05,-3.08
,,0,2025-11-18T17:43:22.628Z,10.03,7.47,-6.39,2.01,6.03,-4.09,3.22,-3.04
,,0,2025-11-18T17:43:22.638Z,9.99,7.52,-6.28,1.96,5.91,-4.38,3.1,-2.47
,,0,2025-11-18T17:43:22.648Z,10.06,7.62,-6.28,1.93,6.67,-4.6,3.8,-2.98
,,0,2025-11-18T17:43:22.658Z,10.02,7.6,-6.25,1.94,6.69,-4.03,4.7,-2.52
,,0,2025-11-18T17:43:22.668Z,10.1,7.58,-6.4,1.9,6.08,-3.6,4.3,-2.36
,,0,2025-11-18T17:43:22.678Z,10.09,7.6,-6.35,1.89,6.69,-3.11,4.92,-3.28
,,0,2025-11-18T17:43:22.688Z,9.96,7.54,-6.22,1.89,6.36,-2.24,4.85,-3.47
,,0,2025-11-18T17:43:22.698Z,9.87,7.48,-6.18,1.83,5.99,-2.69,4.41,-3.04
,,0,2025-11-18T17:43:22.708Z,9.79,7.47,-6.05,1.85,6.09,-3.44,4.32,-2.56
,,0,2025-11-18T17:43:22.718Z,9.9,7.56,-6.12,1.86,6.79,-4.08,4.33,-3.28
,,0,2025-11-18T17:43:22.728Z,9.82,7.45,-6.16,1.72,6.52,-4.36,3.81,-3
,,0,2025-11-18T17:43:22.738Z,9.8,7.42,-6.13,1.82,6.15,-3.9,3.5,-3.21
,,0,2025-11-18T17:43:22.748Z,9.83,7.47,-6.1,1.89,6.19,-3.79,3.08,-3.79
,,0,2025-11-18T17:43:22.758Z,9.88,7.46,-6.16,1.98,6.03,-2.99,2.67,-4.5
,,0,2025-11-18T17:43:22.768Z,10.01,7.63,-6.15,2.06,6.24,-2.62,2.81,-4.92
,,0,2025-11-18T17:43:22.778Z,10.05,7.64,-6.23,1.94,5.95,-2.53,2.73,-4.64
,,0,2025-11-18T17:43:22.788Z,10,7.61,-6.19,1.95,5.75,-2.62,2.56,-4.43
,,0,2025-11-18T17:43:22.798Z,9.91,7.57,-6.09,1.95,6.03,-2.81,3.07,-4.37
,,0,2025-11-18T17:43:22.808Z,9.86,7.44,-6.17,1.93,5.75,-2.8,2.94,-4.07
,,0,2025-11-18T17:43:22.818Z,9.99,7.5,-6.31,1.92,5.87,-2.27,3.17,-4.39
,,0,2025-11-18T17:43:22.828Z,9.86,7.42,-6.2,1.92,5.87,-1.92,2.97,-4.69
,,0,2025-11-18T17:43:22.838Z,9.79,7.44,-6.06,1.97,6.25,-2.41,3.05,-4.9
,,0,2025-11-18T17:43:22.848Z,9.87,7.45,-6.16,1.99,6.13,-2.37,2.98,-4.81
,,0,2025-11-18T17:43:22.858Z,9.81,7.39,-6.16,1.88,6.32,-2.98,2.83,-4.8
,,0,2025-11-18T17:43:22.868Z,9.71,7.38,-6.05,1.79,6.16,-3.37,2.47,-4.53
,,0,2025-11-18T17:43:22.878Z,9.86,7.38,-6.29,1.79,6.17,-3.07,2.35,-4.81
,,0,2025-11-18T17:43:22.888Z,10.01,7.41,-6.46,1.83,5.92,-2.46,1.99,-5
,,0,2025-11-18T17:43:22.898Z,9.96,7.38,-6.45,1.81,5.31,-1.52,1.56,-4.84
,,0,2025-11-18T17:43:22.908Z,9.89,7.47,-6.22,1.83,4.98,-1.8,1.27,-4.47
,,0,2025-11-18T17:43:22.918Z,9.85,7.4,-6.22,1.88,5.31,-2.65,1.1,-4.47
,,0,2025-11-18T17:43:22.928Z,9.93,7.46,-6.27,1.93,4.8,-2.64,1.14,-3.84
,,0,2025-11-18T17:43:22.938Z,9.91,7.45,-6.27,1.85,5.05,-2.7,1.27,-4.08
,,0,2025-11-18T17:43:22.948Z,9.89,7.46,-6.21,1.9,5.02,-2.56,1.45,-4.06
,,0,2025-11-18T17:43:22.958Z,9.91,7.51,-6.17,1.94,4.9,-2.52,1.24,-4.02
,,0,2025-11-18T17:43:22.968Z,10,7.62,-6.17,1.95,5.44,-2.85,1.9,-4.23
,,0,2025-11-18T17:43:22.978Z,10.04,7.59,-6.24,2.07,5.83,-2.86,2.53,-4.4
,,0,2025-11-18T17:43:22.988Z,10.05,7.55,-6.28,2.12,5.43,-2.36,2.34,-4.3
,,0,2025-11-18T17:43:22.998Z,10.03,7.61,-6.19,2.09,5.59,-2.42,2.6,-4.31
,,0,2025-11-18T17:43:23.008Z,10,7.62,-6.16,2,5.85,-2.05,3.16,-4.47
,,0,2025-11-18T17:43:23.018Z,10.11,7.64,-6.33,1.96,5.91,-2.09,3.15,-4.54
,,0,2025-11-18T17:43:23.028Z,10.03,7.62,-6.23,1.93,6.04,-1.73,3.02,-4.94
,,0,2025-11-18T17:43:23.038Z,9.89,7.55,-6.11,1.86,5.67,-1.5,3.09,-4.5
,,0,2025-11-18T17:43:23.048Z,9.89,7.57,-6.07,1.9,5.93,-1.56,3.37,-4.62
,,0,2025-11-18T17:43:23.058Z,9.87,7.5,-6.1,1.98,6.54,-2.26,3.69,-4.9
,,0,2025-11-18T17:43:23.068Z,9.8,7.42,-6.09,1.95,6.85,-2.45,3.79,-5.16
,,0,2025-11-18T17:43:23.078Z,9.73,7.41,-6.02,1.87,7,-3.41,3.02,-5.31
,,0,2025-11-18T17:43:23.088Z,9.74,7.45,-6.03,1.75,7.64,-4.38,3.41,-5.25
,,0,2025-11-18T17:43:23.098Z,9.94,7.51,-6.24,1.85,7.61,-4.8,3.11,-5.02
,,0,2025-11-18T17:43:23.108Z,10.02,7.47,-6.42,1.82,7.22,-4.4,2.35,-5.21
,,0,2025-11-18T17:43:23.118Z,10,7.5,-6.33,1.93,6.04,-2.93,1.96,-4.91
,,0,2025-11-18T17:43:23.128Z,9.94,7.43,-6.26,2.09,6.1,-3.06,1.98,-4.89
,,0,2025-11-18T17:43:23.138Z,9.76,7.41,-6.03,1.99,6.96,-3.76,2.09,-5.47
,,0,2025-11-18T17:43:23.148Z,9.9,7.38,-6.24,2.14,6.69,-3.44,2.53,-5.15
,,0,2025-11-18T17:43:23.158Z,9.83,7.3,-6.25,2.06,6.62,-3.37,2.24,-5.24
,,0,2025-11-18T17:43:23.168Z,9.82,7.42,-6.06,2.13,6.77,-3.34,2.15,-5.49
,,0,2025-11-18T17:43:23.178Z,9.89,7.41,-6.2,2.07,7.06,-3.62,2.37,-5.58
,,0,2025-11-18T17:43:23.188Z,9.9,7.43,-6.24,1.94,6.95,-4.04,2.4,-5.12
,,0,2025-11-18T17:43:23.198Z,9.91,7.46,-6.22,1.96,6.8,-4.23,2.45,-4.73
,,0,2025-11-18T17:43:23.208Z,10,7.48,-6.33,1.96,6.82,-4.56,2.73,-4.27
,,0,2025-11-18T17:43:23.218Z,9.94,7.41,-6.31,2.02,6.84,-3.76,3.01,-4.85
,,0,2025-11-18T17:43:23.228Z,9.81,7.38,-6.17,1.93,5.88,-3.4,2.44,-4.13
,,0,2025-11-18T17:43:23.238Z,9.86,7.44,-6.18,1.9,6.07,-3.19,2.68,-4.41
,,0,2025-11-18T17:43:23.248Z,9.88,7.46,-6.22,1.81,6.54,-3.26,2.44,-5.11
,,0,2025-11-18T17:43:23.258Z,9.74,7.37,-6.1,1.81,6.06,-3.21,2.28,-4.61
,,0,2025-11-18T17:43:23.268Z,9.8,7.44,-6.08,1.94,6.84,-4.47,2.15,-4.71
,,0,2025-11-18T17:43:23.278Z,9.82,7.53,-6.04,1.83,7.12,-4.92,2.53,-4.48
,,0,2025-11-18T17:43:23.288Z,9.98,7.55,-6.26,1.88,7.73,-5.35,3.08,-4.65
,,0,2025-11-18T17:43:23.298Z,9.9,7.49,-6.17,1.98,7.59,-5.66,2.23,-4.53
,,0,2025-11-18T17:43:23.308Z,9.89,7.52,-6.11,1.97,7.58,-5.85,2.66,-4.02
,,0,2025-11-18T17:43:23.318Z,10.02,7.58,-6.22,2.05,7.78,-6.05,2.82,-4.01
,,0,2025-11-18T17:43:23.328Z,9.98,7.52,-6.23,2.06,7.56,-5.79,2.05,-4.4
,,0,2025-11-18T17:43:23.338Z,9.9,7.47,-6.19,1.95,7.69,-6.02,2.18,-4.27
,,0,2025-11-18T17:43:23.348Z,9.95,7.58,-6.1,2.04,7.82,-6.17,2.49,-4.11
,,0,2025-11-18T17:43:23.358Z,9.81,7.52,-6,1.93,8.61,-7.02,2.91,-4.06
,,0,2025-11-18T17:43:23.368Z,9.94,7.51,-6.19,2.02,8.84,-7.18,3.07,-4.14
,,0,2025-11-18T17:43:23.378Z,9.95,7.49,-6.23,2.01,8.42,-6.26,3.19,-4.63
,,0,2025-11-18T17:43:23.388Z,9.99,7.47,-6.27,2.17,7.93,-5.49,3.19,-4.76
,,0,2025-11-18T17:43:23.398Z,9.97,7.48,-6.25,2.11,7.73,-5.08,3.05,-4.98
,,0,2025-11-18T17:43:23.408Z,9.98,7.52,-6.22,2.14,7.4,-4.66,2.75,-5.05
,,0,2025-11-18T17:43:23.418Z,9.99,7.44,-6.3,2.21,7.28,-4.32,2.84,-5.13
,,0,2025-11-18T17:43:23.428Z,9.89,7.41,-6.27,1.93,6.71,-4.2,2.24,-4.73
,,0,2025-11-18T17:43:23.438Z,9.86,7.43,-6.21,1.88,6.17,-4.14,1.94,-4.15
,,0,2025-11-18T17:43:23.448Z,9.83,7.41,-6.2,1.82,6.76,-4.68,2.4,-4.24
,,0,2025-11-18T17:43:23.458Z,9.81,7.36,-6.22,1.85,6.78,-4.95,2.08,-4.15
,,0,2025-11-18T17:43:23.468Z,9.89,7.43,-6.23,1.93,6.8,-4.88,2.03,-4.27
,,0,2025-11-18T17:43:23.478Z,9.89,7.43,-6.22,1.98,7,-4.95,2.07,-4.5
,,0,2025-11-18T17:43:23.488Z,9.89,7.47,-6.18,1.93,7.47,-5.3,1.86,-4.93
,,0,2025-11-18T17:43:23.498Z,9.94,7.53,-6.2,1.93,7.55,-5.39,1.96,-4.91
,,0,2025-11-18T17:43:23.508Z,10.03,7.55,-6.31,1.95,7.41,-5.2,1.88,-4.94
,,0,2025-11-18T17:43:23.518Z,9.93,7.57,-6.16,1.87,7.27,-4.98,1.8,-4.98
,,0,2025-11-18T17:43:23.528Z,9.9,7.53,-6.15,1.89,7.23,-5.5,1.57,-4.41
,,0,2025-11-18T17:43:23.538Z,9.67,7.47,-5.89,1.72,7.97,-6.63,1.89,-3.98
,,0,2025-11-18T17:43:23.548Z,9.83,7.5,-6.08,1.87,8.28,-6.69,2.39,-4.25
,,0,2025-11-18T17:43:23.558Z,9.85,7.44,-6.16,1.91,8.44,-6.69,2.38,-4.55
,,0,2025-11-18T17:43:23.568Z,9.9,7.48,-6.15,2.02,8.72,-6.49,2.62,-5.21
,,0,2025-11-18T17:43:23.578Z,9.98,7.57,-6.17,2.07,8.94,-5.99,2.78,-6.03
,,0,2025-11-18T17:43:23.588Z,9.93,7.55,-6.14,1.97,8.51,-6.05,2.21,-5.56
,,0,2025-11-18T17:43:23.598Z,10.02,7.52,-6.3,2.04,8.79,-6.37,2.31,-5.6
,,0,2025-11-18T17:43:23.608Z,9.92,7.52,-6.2,1.87,8.56,-6.02,1.81,-5.8
,,0,2025-11-18T17:43:23.618Z,10,7.54,-6.3,1.89,8.45,-6.09,1.66,-5.62
,,0,2025-11-18T17:43:23.628Z,9.94,7.45,-6.3,1.89,7.84,-5.24,1.45,-5.64
,,0,2025-11-18T17:43:23.638Z,10.02,7.56,-6.28,1.95,8.17,-5.67,1.41,-5.71
,,0,2025-11-18T17:43:23.648Z,9.97,7.53,-6.21,2.01,8.18,-5.89,1.21,-5.54
,,0,2025-11-18T17:43:23.658Z,9.94,7.5,-6.17,2.1,8.93,-5.98,1.32,-6.5
,,0,2025-11-18T17:43:23.668Z,9.85,7.46,-6.09,2.08,7.83,-5.27,0.08,-5.79
,,0,2025-11-18T17:43:23.678Z,9.83,7.44,-6.07,2.1,7.91,-5.49,0.12,-5.69
,,0,2025-11-18T17:43:23.688Z,9.79,7.47,-6.05,1.81,8.2,-5.78,0.2,-5.82
,,0,2025-11-18T17:43:23.698Z,9.83,7.45,-6.16,1.83,8.5,-5.66,0.49,-6.32
,,0,2025-11-18T17:43:23.708Z,9.83,7.44,-6.19,1.72,8.38,-5.48,0.54,-6.32
,,0,2025-11-18T17:43:23.718Z,9.92,7.51,-6.23,1.8,7.78,-4.73,0.68,-6.14
,,0,2025-11-18T17:43:23.728Z,9.95,7.56,-6.21,1.82,8.11,-4.73,0.85,-6.54
,,0,2025-11-18T17:43:23.738Z,9.95,7.51,-6.21,1.99,8.11,-4.31,1.39,-6.73
,,0,2025-11-18T17:43:23.748Z,9.98,7.54,-6.22,2,8.03,-4.76,1.15,-6.36
,,0,2025-11-18T17:43:23.758Z,9.97,7.57,-6.18,1.95,8.67,-5.21,1.88,-6.67
,,0,2025-11-18T17:43:23.768Z,9.85,7.46,-6.17,1.81,8.7,-5.8,1.53,-6.3
,,0,2025-11-18T17:43:23.778Z,9.73,7.39,-6.09,1.74,8.47,-6.03,1.12,-5.85
,,0,2025-11-18T17:43:23.788Z,9.72,7.44,-6,1.76,8.79,-6.37,1.15,-5.94
,,0,2025-11-18T17:43:23.798Z,9.77,7.41,-6.12,1.76,9.02,-6.46,1.24,-6.17
,,0,2025-11-18T17:43:23.808Z,9.74,7.39,-6.09,1.81,8.89,-6.33,0.53,-6.22
,,0,2025-11-18T17:43:23.818Z,9.71,7.44,-5.97,1.82,9.38,-7.02,0.24,-6.23
,,0,2025-11-18T17:43:23.828Z,9.76,7.51,-5.92,1.93,11.85,-10.31,-0.27,-5.84
,,0,2025-11-18T17:43:23.838Z,9.14,7.3,-5.2,1.76,22.65,-22.5,-1.29,-2.34
,,0,2025-11-18T17:43:23.848Z,9.16,7.47,-4.96,1.86,35.41,-35.4,-0.82,0.53
,,0,2025-11-18T17:43:23.858Z,9.66,7.44,-5.91,1.79,40.53,-40.52,-1.02,0.08
,,0,2025-11-18T17:43:23.868Z,9.7,7.4,-5.94,2,45.61,-45.44,-1.93,3.38
,,0,2025-11-18T17:43:23.878Z,9.81,7.43,-6.11,1.91,44.57,-44.41,-1.87,3.27
,,0,2025-11-18T17:43:23.888Z,9.92,7.35,-6.36,1.99,44.52,-44.37,-2.2,2.98
,,0,2025-11-18T17:43:23.898Z,10.06,7.4,-6.48,2.1,41.6,-41.47,-2.26,2.36
,,0,2025-11-18T17:43:23.908Z,9.97,7.27,-6.5,2.1,37.46,-37.43,-1.31,0.92
,,0,2025-11-18T17:43:23.918Z,10.02,7.37,-6.43,2.16,36.76,-36.68,-0.95,2.21
,,0,2025-11-18T17:43:23.928Z,10.1,7.59,-6.29,2.2,36.86,-36.76,0.44,2.58
,,0,2025-11-18T17:43:23.938Z,9.99,7.55,-6.17,2.17,39.4,-39.15,2.63,3.66
,,0,2025-11-18T17:43:24.078Z,10.48,8.36,-6.13,1.48,59.35,-28.35,52.07,2.68
,,0,2025-11-18T17:43:24.087Z,10.19,8.24,-5.86,1.29,62.34,-29.75,54.69,3.1
,,0,2025-11-18T17:43:24.097Z,10.25,8.15,-6.06,1.37,63.49,-28.73,56.58,1.92
,,0,2025-11-18T17:43:24.107Z,10.01,7.95,-5.93,1.32,65.32,-30.24,57.76,4.04
,,0,2025-11-18T17:43:24.117Z,9.63,7.87,-5.4,1.27,67.13,-33.17,58.17,4.79
,,0,2025-11-18T17:43:24.127Z,9.64,7.8,-5.48,1.38,69.36,-36.52,58.79,4.5
,,0,2025-11-18T17:43:24.137Z,9.74,7.66,-5.83,1.5,69.61,-37.4,58.54,4.52
,,0,2025-11-18T17:43:24.147Z,9.68,7.55,-5.86,1.56,68.91,-37.86,57.35,5.03
,,0,2025-11-18T17:43:24.157Z,9.67,7.53,-5.83,1.64,68.97,-39.47,56.38,4.57
,,0,2025-11-18T17:43:24.167Z,9.47,7.49,-5.56,1.63,70.45,-43.1,55.4,5.99
,,0,2025-11-18T17:43:24.177Z,9.54,7.42,-5.74,1.76,70.74,-44.66,54.46,6.65
,,0,2025-11-18T17:43:24.187Z,9.83,7.36,-6.24,1.85,70.89,-46.75,52.62,8.48
,,0,2025-11-18T17:43:24.197Z,9.74,7.28,-6.22,1.82,72.67,-50.44,51.05,11.44
,,0,2025-11-18T17:43:24.207Z,9.55,7.25,-5.91,1.92,75.2,-54.57,50.1,12.91
,,0,2025-11-18T17:43:24.217Z,9.79,7.13,-6.39,2.05,75.32,-56.05,48.66,12.79
,,0,2025-11-18T17:43:24.227Z,9.89,6.93,-6.72,2.16,73.06,-54.11,47.36,12.88
,,0,2025-11-18T17:43:24.237Z,9.73,6.92,-6.4,2.4,71.87,-53,46.52,13.86
,,0,2025-11-18T17:43:24.247Z,9.63,6.81,-6.34,2.49,70.42,-51.94,45.63,13.4
,,0,2025-11-18T17:43:24.257Z,9.64,6.87,-6.25,2.59,70.55,-51.94,45.55,14.31
,,0,2025-11-18T17:43:24.267Z,9.81,6.99,-6.33,2.7,72.49,-52.75,46.81,16.76
,,0,2025-11-18T17:43:24.277Z,9.77,6.93,-6.36,2.66,73.35,-52.67,48.47,16
,,0,2025-11-18T17:43:24.287Z,10.12,6.96,-6.83,2.72,73.42,-51.27,50.02,16.15
,,0,2025-11-18T17:43:24.297Z,10.05,6.9,-6.9,2.44,72.59,-48.4,51.56,16.37
,,0,2025-11-18T17:43:24.307Z,9.93,6.87,-6.75,2.43,71.27,-45.01,53.11,15.24
,,0,2025-11-18T17:43:24.317Z,9.99,6.77,-6.91,2.47,70.09,-41.37,54.75,14.26
,,0,2025-11-18T17:43:24.327Z,10.11,6.73,-7.07,2.63,66.12,-33.91,55.4,12.35
,,0,2025-11-18T17:43:24.337Z,10.05,6.73,-6.99,2.62,62.93,-25.7,56.45,10.65
,,0,2025-11-18T17:43:24.347Z,10.04,6.82,-6.86,2.66,60.78,-17.79,57.42,9.01
,,0,2025-11-18T17:43:24.357Z,9.8,6.72,-6.54,2.86,59.88,-13.56,57.81,7.76
,,0,2025-11-18T17:43:24.367Z,9.44,6.73,-5.95,2.92,60.5,-14.39,58.08,8.89
,,0,2025-11-18T17:43:24.377Z,9.2,6.84,-5.51,2.75,63.86,-22.24,58.43,13.03
,,0,2025-11-18T17:43:24.387Z,9.12,6.96,-5.29,2.62,67.56,-30.53,58.04,16.25
,,0,2025-11-18T17:43:24.397Z,9.33,6.89,-5.7,2.64,73.13,-39.62,58.15,19.9
,,0,2025-11-18T17:43:24.407Z,9.59,6.76,-6.27,2.62,74.4,-42.11,57.11,22.36
,,0,2025-11-18T17:43:24.417Z,9.92,6.84,-6.67,2.68,71.34,-39.59,54.68,23.07
,,0,2025-11-18T17:43:24.427Z,9.9,6.75,-6.71,2.72,66.25,-33.22,52.58,22.82
,,0,2025-11-18T17:43:24.437Z,9.61,6.62,-6.43,2.68,62.49,-28.8,50.95,21.89
,,0,2025-11-18T17:43:24.447Z,9.33,6.57,-6.1,2.56,57.01,-22.24,47.5,22.34
,,0,2025-11-18T17:43:24.457Z,9.95,7.54,-5.6,3.3,58.56,-24.68,50.76,15.63
,,0,2025-11-18T17:43:24.467Z,9.34,6.73,-5.32,3.71,53.15,-17.85,48.45,12.63
,,0,2025-11-18T17:43:24.477Z,8.27,6,-4.65,3.27,49.98,-15.51,45.24,14.53
,,0,2025-11-18T17:43:24.487Z,8.87,5.59,-6.1,3.2,47.05,-16.94,40.84,16.08
,,0,2025-11-18T17:43:24.497Z,9.3,6.16,-6.21,3.15,44.81,-18.62,38.41,13.64
,,0,2025-11-18T17:43:24.507Z,9.24,6.47,-5.67,3.39,37.61,-4.74,36.31,8.57
,,0,2025-11-18T17:43:24.517Z,9.65,6.06,-6.78,3.24,34.67,14.92,31.28,0.84
,,0,2025-11-18T17:43:24.527Z,9.53,5.69,-7.01,3.06,37.03,26.4,25.97,0.42
,,0,2025-11-18T17:43:24.537Z,9.18,6.02,-5.56,4.13,36.58,23.9,27.31,4.53
,,0,2025-11-18T17:43:24.547Z,9.23,6.28,-3.82,5.58,35.06,10.85,33.27,-2
,,0,2025-11-18T17:43:24.557Z,8.87,5.65,-4.31,5.31,32.62,0.97,32.54,-2.09
,,0,2025-11-18T17:43:24.567Z,8.54,4.76,-6.16,3.52,26.17,5.84,24.27,7.84
,,0,2025-11-18T17:43:24.577Z,8.89,4.31,-7.59,1.7,24.45,16.35,15.17,10.01
,,0,2025-11-18T17:43:24.587Z,8.83,5.01,-7.05,1.75,28.3,25.08,11.18,6.84
,,0,2025-11-18T17:43:24.597Z,7.94,4.79,-5.99,2.04,24.86,23.89,6.31,-2.69
,,0,2025-11-18T17:43:24.607Z,7.28,4.38,-5.34,2.31,16.42,16.14,3.02,0.17
,,0,2025-11-18T17:43:24.617Z,7.51,3.88,-5.81,2.75,10.35,7.57,-3.29,6.24
,,0,2025-11-18T17:43:24.627Z,8.02,3.61,-6.81,2.22,12.78,6.6,-7.66,7.82
,,0,2025-11-18T17:43:24.637Z,9.11,3.63,-8.04,2.28,17.43,10.98,-10.26,8.83
,,0,2025-11-18T17:43:24.647Z,10.01,2.91,-9.26,2.44,35.22,32.66,-13.16,0.69
,,0,2025-11-18T17:43:24.657Z,10.9,2.74,-10.2,2.68,56.47,52.89,-19.62,-2.61
,,0,2025-11-18T17:43:24.667Z,10.66,2.95,-9.76,3.08,70.41,65.98,-24.55,-1.18
,,0,2025-11-18T17:43:24.677Z,9.26,2.38,-8.66,2.25,73.11,66.05,-31.1,-3.78
,,0,2025-11-18T17:43:24.687Z,8.05,2.1,-7.57,1.73,70.78,59.82,-37.81,1.41
,,0,2025-11-18T17:43:24.697Z,8,2.34,-7.51,1.47,68.03,50.53,-45.48,2.37
,,0,2025-11-18T17:43:24.707Z,9.36,2.99,-8.71,1.68,70.08,45.34,-53.32,3.63
,,0,2025-11-18T17:43:24.717Z,10.88,3.86,-10.02,1.77,73.92,44.92,-58.5,4.85
,,0,2025-11-18T17:43:24.727Z,11.91,4.54,-10.84,1.94,77.74,49.39,-59.95,3.34
,,0,2025-11-18T17:43:24.737Z,11.79,4.86,-10.44,2.52,82.65,56.02,-60.76,0.49
,,0,2025-11-18T17:43:24.747Z,11.21,4.87,-9.66,2.92,80.53,53.53,-60.11,-2.65
,,0,2025-11-18T17:43:24.757Z,11.83,4.44,-10.77,2.07,77.98,44.4,-64.09,1.31
,,0,2025-11-18T17:43:24.767Z,13.45,4.82,-12.54,0.78,85.88,46.51,-72.14,-2.75
,,0,2025-11-18T17:43:24.777Z,13.85,5.57,-12.6,1.34,88.02,46.68,-74.47,-4.76
,,0,2025-11-18T17:43:24.787Z,14.86,5.79,-13.59,1.61,90.36,47.12,-76.96,-4.6
,,0,2025-11-18T17:43:24.797Z,15.95,6.83,-14.14,2.78,88.64,41.56,-78.28,-0.63
,,0,2025-11-18T17:43:24.807Z,16.57,7.32,-14.55,3.03,82.78,33.11,-75.87,-0.5
,,0,2025-11-18T17:43:24.817Z,15.82,6.74,-14.09,2.5,80.75,28.77,-75.45,0.43
,,0,2025-11-18T17:43:24.827Z,14.95,6.65,-13.11,2.72,80.39,23.24,-76.95,0.82
,,0,2025-11-18T17:43:24.837Z,15.02,6.84,-13.15,2.42,81.19,15.6,-79.58,4
,,0,2025-11-18T17:43:24.847Z,15.07,6.9,-13.23,2.04,84.4,7.89,-82.6,15.49
,,0,2025-11-18T17:43:24.857Z,14.44,6.31,-12.92,1.35,89.49,-0.84,-86.44,23.15
,,0,2025-11-18T17:43:24.867Z,13.28,5.72,-11.95,0.9,96.06,-7.41,-91.5,28.29
,,0,2025-11-18T17:43:24.877Z,12.47,5.42,-11.19,0.9,100.21,-12.41,-94.86,29.82
,,0,2025-11-18T17:43:24.887Z,12,5.22,-10.76,1,104.72,-16.66,-98.69,30.78
,,0,2025-11-18T17:43:24.897Z,11.98,4.98,-10.84,1.11,107.51,-14.94,-101.85,31.01
,,0,2025-11-18T17:43:24.907Z,11.91,4.73,-10.9,0.83,106.7,-6.62,-103.32,25.8
,,0,2025-11-18T17:43:24.917Z,11.57,4.66,-10.58,0.63,106.69,5.19,-104.43,21.24
,,0,2025-11-18T17:43:24.927Z,10.6,4.67,-9.49,0.58,106.18,15.3,-103.79,16.31
,,0,2025-11-18T17:43:24.937Z,9.5,4.68,-8.25,0.48,104.91,21.11,-101.98,12.73
,,0,2025-11-18T17:43:24.947Z,8.66,4.38,-7.45,0.55,103.4,26.17,-99.66,8.65
,,0,2025-11-18T17:43:24.957Z,8.14,3.98,-7.1,0.36,102.03,28.06,-97.71,8.71
,,0,2025-11-18T17:43:24.967Z,7.77,3.96,-6.66,0.51,102.23,32.63,-96.63,6.91
,,0,2025-11-18T17:43:24.977Z,7.71,3.96,-6.55,0.87,103.5,40.74,-95.11,2.48
,,0,2025-11-18T17:43:24.987Z,7.4,3.64,-6.39,0.79,103.59,45.12,-93.23,1.69
,,0,2025-11-18T17:43:24.997Z,6.95,3.37,-6.03,0.83,103.99,47.26,-92.6,2.12
,,0,2025-11-18T17:43:25.007Z,6.53,3.37,-5.56,0.7,100.76,42.05,-91.55,1.8
,,0,2025-11-18T17:43:25.017Z,6.36,3.49,-5.29,0.61,99.47,38.78,-91.53,3.5
,,0,2025-11-18T17:43:25.027Z,6.47,3.64,-5.31,0.6,97.81,34.82,-91.22,5.85
,,0,2025-11-18T17:43:25.037Z,6.65,3.76,-5.43,0.74,94.8,32.81,-88.55,8.31
,,0,2025-11-18T17:43:25.047Z,6.89,3.72,-5.73,0.84,92.05,34.39,-84.88,9.25
,,0,2025-11-18T17:43:25.057Z,7.17,3.69,-6.04,1.15,89.38,38.29,-79.92,11.64
,,0,2025-11-18T17:43:25.067Z,6.86,3.49,-5.82,1.03,87.2,42.03,-75.02,14.51
,,0,2025-11-18T17:43:25.077Z,6.3,3.32,-5.24,1.07,83.44,41.83,-69.53,19.47
,,0,2025-11-18T17:43:25.087Z,5.67,3.21,-4.59,0.89,79.6,37.92,-64.94,26.1
,,0,2025-11-18T17:43:25.097Z,5.72,3.1,-4.7,1.02,77.91,37.67,-62.22,27.92
,,0,2025-11-18T17:43:25.107Z,6.21,3.1,-5.32,0.74,79.34,40.29,-60.69,31.43
,,0,2025-11-18T17:43:25.117Z,7.15,3.15,-6.39,0.57,87.26,51.11,-63.41,31.31
,,0,2025-11-18T17:43:25.127Z,8.33,3.77,-7.41,0.57,96.59,64.9,-67.19,24.54
,,0,2025-11-18T17:43:25.137Z,9.44,4.67,-8.19,0.65,106.69,78.53,-70.38,16.18
,,0,2025-11-18T17:43:25.147Z,10.38,5.61,-8.73,0.46,114.93,87.06,-74.01,12.3
,,0,2025-11-18T17:43:25.157Z,11.02,6.61,-8.81,-0.36,115.08,85.76,-74.98,16.4
,,0,2025-11-18T17:43:25.167Z,11.78,7.76,-8.84,-0.58,113.59,83.24,-74.99,18.69
,,0,2025-11-18T17:43:25.177Z,12.79,8.64,-9.4,-0.61,110.38,81.85,-71.49,19.32
,,0,2025-11-18T17:43:25.187Z,13.66,9.44,-9.85,-0.59,108.65,82.84,-67.46,19.78
,,0,2025-11-18T17:43:25.197Z,14.45,10.2,-10.23,-0.3,105.02,82.91,-60.91,21.11
,,0,2025-11-18T17:43:25.207Z,14.37,10.35,-9.96,-0.48,99.17,78.9,-54.66,24.95
,,0,2025-11-18T17:43:25.217Z,13.86,10.38,-9.18,-0.41,89.16,65.82,-48.54,35.5
,,0,2025-11-18T17:43:25.227Z,13.65,10.27,-8.99,-0.23,83.54,56.74,-45.75,40.83
,,0,2025-11-18T17:43:25.237Z,13.98,10.38,-9.37,-0.21,76.84,48.25,-44.18,40.3
,,0,2025-11-18T17:43:25.247Z,14.16,10.44,-9.56,-0.17,78.12,45.79,-45.94,43.53
,,0,2025-11-18T17:43:25.257Z,14.25,10.24,-9.91,0.28,79.51,50.07,-45.13,42.18
,,0,2025-11-18T17:43:25.267Z,14.48,10.14,-10.33,0.61,82.75,60.73,-46.08,32.18
,,0,2025-11-18T17:43:25.277Z,14.46,10.12,-10.24,1.32,90.79,74.8,-45.15,24.69
,,0,2025-11-18T17:43:25.287Z,13.83,10.06,-9.31,1.83,101.28,89.06,-43.05,21.71
,,0,2025-11-18T17:43:25.297Z,13.04,9.97,-8.07,2.39,112.28,101.92,-41.11,23.03
,,0,2025-11-18T17:43:25.307Z,12.2,9.98,-6.41,2.85,115.62,106.44,-37.52,25.14
,,0,2025-11-18T17:43:25.317Z,11.73,10.1,-5.04,3.19,109.22,100.75,-32,27.49
,,0,2025-11-18T17:43:25.327Z,11.5,10.2,-4.27,3.15,101.99,94.4,-26.08,28.44
,,0,2025-11-18T17:43:25.337Z,11.8,10.32,-4.67,3.29,95.42,88.77,-18.76,29.56
,,0,2025-11-18T17:43:25.347Z,11.82,10.26,-4.86,3.27,88.04,80.08,-12.5,34.38
,,0,2025-11-18T17:43:25.357Z,11.72,10.19,-4.86,3.16,80.84,72.69,-5.35,34.95
,,0,2025-11-18T17:43:25.367Z,11.63,10.15,-4.89,2.89,75.04,68.1,1.96,31.45
,,0,2025-11-18T17:43:25.377Z,11.61,10.26,-4.56,2.97,72.07,65.79,10.93,27.31
,,0,2025-11-18T17:43:25.387Z,11.03,9.99,-3.84,2.67,67.98,61.62,17.3,22.92
,,0,2025-11-18T17:43:25.397Z,10.79,10.01,-2.94,2.74,66.35,59.73,22.98,17.53
,,0,2025-11-18T17:43:25.407Z,11.05,10.31,-2.33,3.22,63.86,54.55,30.51,13.1
,,0,2025-11-18T17:43:25.417Z,11.12,10.49,-2.19,2.97,63,51.34,36.07,5.64
,,0,2025-11-18T17:43:25.427Z,11.65,11.06,-2.02,3.04,57.94,37.12,44.47,0.75
,,0,2025-11-18T17:43:25.437Z,11.93,11.5,-1.25,2.92,54.99,20.37,50.72,-6.08
,,0,2025-11-18T17:43:25.447Z,12.51,12.17,-0.93,2.75,60.06,4.27,58.43,-13.23
,,0,2025-11-18T17:43:25.457Z,12.61,12.51,-0.9,1.3,68.06,-11.02,63.9,-20.68
,,0,2025-11-18T17:43:25.467Z,13.63,13.59,-0.42,0.9,82.7,-27.18,71.95,-30.4
,,0,2025-11-18T17:43:25.477Z,14.46,14.42,-1,0.1,99.18,-35.72,81.49,-43.82
,,0,2025-11-18T17:43:25.487Z,15.69,15.57,-1.92,-0.1,114.81,-44.53,89.59,-56.32
,,0,2025-11-18T17:43:25.497Z,17.12,16.98,-2.2,0.11,133.28,-54.83,99.28,-69.99
,,0,2025-11-18T17:43:25.507Z,19,18.9,-1.66,0.94,154.93,-69.69,107.91,-86.62
,,0,2025-11-18T17:43:25.517Z,19.66,19.62,-0.3,1.23,183.86,-95.66,120.98,-100.08
,,0,2025-11-18T17:43:25.527Z,19.73,19.62,2.07,-0.04,220.16,-131.02,136.78,-112.23
,,0,2025-11-18T17:43:25.537Z,20.15,19.62,3.73,-2.67,265.61,-168.4,159.73,-129.14
,,0,2025-11-18T17:43:25.547Z,20.32,19.62,3.79,-3.69,320.68,-205.66,193.17,-152.4
,,0,2025-11-18T17:43:25.557Z,20.61,19.62,4.19,-4.72,386.39,-249.13,240.33,-171.68
,,0,2025-11-18T17:43:25.567Z,21.09,19.62,5.14,-5.79,398.78,-250.14,250.13,-184.11
,,0,2025-11-18T17:43:25.577Z,21.59,19.62,5.9,-6.82,407.79,-250.14,250.13,-202.89
,,0,2025-11-18T17:43:25.587Z,22.67,19.62,6.61,-9.23,416.88,-250.14,250.13,-220.58
,,0,2025-11-18T17:43:25.597Z,24.38,19.62,6.1,-13.13,417.84,-250.14,250.13,-222.39
,,0,2025-11-18T17:43:25.607Z,26.14,19.62,4.01,-16.81,416.8,-250.14,250.13,-220.43
,,0,2025-11-18T17:43:25.617Z,27.77,19.62,1.2,-19.62,416.35,-250.14,250.13,-219.57
,,0,2025-11-18T17:43:25.627Z,27.95,19.62,-3.33,-19.62,407.26,-250.14,250.13,-201.81
,,0,2025-11-18T17:43:25.637Z,28.6,19.62,-6.94,-19.62,391.38,-250.14,250.13,-167.47
,,0,2025-11-18T17:43:25.647Z,28.88,19.62,-8,-19.62,370.13,-250.14,250.13,-108.91
,,0,2025-11-18T17:43:25.657Z,28.74,19.62,-7.5,-19.62,355.32,-250.14,250.13,-33.47
,,0,2025-11-18T17:43:25.667Z,26.7,15.47,-9.42,-19.62,361.9,-250.14,250.13,76.39
,,0,2025-11-18T17:43:25.677Z,26.24,10.55,-13.86,-19.62,405.81,-250.14,250.13,198.86
,,0,2025-11-18T17:43:25.687Z,27.95,3.36,-19.62,-19.62,433.24,-250.14,250.13,250.13
,,0,2025-11-18T17:43:25.697Z,28.5,-6.5,-19.62,-19.62,433.24,-250.14,250.13,250.13
,,0,2025-11-18T17:43:25.707Z,29.68,-10.52,-19.62,-19.62,433.24,-250.14,250.13,250.13
,,0,2025-11-18T17:43:25.717Z,27.75,0.13,-19.62,-19.62,413,-213.17,250.13,250.13
,,0,2025-11-18T17:43:25.727Z,27.71,12.21,-19.62,-15.29,355.09,-31.02,250.13,250.13
,,0,2025-11-18T17:43:25.737Z,19.63,11.98,-6.74,-14.01,356.14,41.31,250.13,250.13
,,0,2025-11-18T17:43:25.747Z,13.65,5.64,-4.75,-11.49,359.82,65.86,250.13,250.13
,,0,2025-11-18T17:43:25.757Z,12.01,1.7,-10.75,-5.07,362.5,79.22,250.13,250.13
,,0,2025-11-18T17:43:25.767Z,20.33,5.23,-19.62,0.95,371.82,114.55,250.13,250.13
,,0,2025-11-18T17:43:25.777Z,23.44,12.81,-19.62,0.61,394.84,175.4,250.13,250.13
,,0,2025-11-18T17:43:25.787Z,28.08,19.62,-19.62,-4.32,433.24,250.13,250.13,250.13
,,0,2025-11-18T17:43:25.797Z,28.91,19.62,-19.62,-8.11,433.24,250.13,250.13,250.13
,,0,2025-11-18T17:43:25.807Z,29.88,19.62,-19.62,-11.09,433.24,250.13,250.13,250.13
,,0,2025-11-18T17:43:25.817Z,31.63,19.62,-19.62,-15.19,433.24,250.13,250.13,250.13
,,0,2025-11-18T17:43:25.827Z,33.98,19.62,-19.62,-19.62,433.24,250.13,250.13,250.13
,,0,2025-11-18T17:43:25.837Z,31.97,19.62,-15.89,-19.62,409.62,250.13,206.55,250.13
,,0,2025-11-18T17:43:25.847Z,30.52,19.62,-12.71,-19.62,379.83,250.13,138.34,250.13
,,0,2025-11-18T17:43:25.857Z,26.77,17.56,-4.86,-19.62,360.34,250.13,68.64,250.13
,,0,2025-11-18T17:43:25.867Z,24.59,14.58,2.72,-19.62,353.74,250.13,1.7,250.13
,,0,2025-11-18T17:43:25.877Z,24.29,11.55,8.45,-19.62,334.29,211.67,-66.18,250.13
,,0,2025-11-18T17:43:25.887Z,25.4,8.89,13.46,-19.62,319.93,165.94,-110.71,250.13
,,0,2025-11-18T17:43:25.897Z,27.32,8.44,17.03,-19.62,319.52,124.82,-154.75,250.13
,,0,2025-11-18T17:43:25.907Z,27.26,6.93,19.62,-17.61,301.42,95.92,-179.22,222.56
,,0,2025-11-18T17:43:25.917Z,23.51,6.5,19.62,-11.2,254.36,82.03,-190.46,147.29
,,0,2025-11-18T17:43:25.927Z,21.67,6.39,19.62,-6.62,213.11,67.76,-187.41,75.51
,,0,2025-11-18T17:43:25.937Z,20.66,5.2,19.62,-3.85,186.01,51.31,-177.85,18.32
,,0,2025-11-18T17:43:25.947Z,18.92,4.34,18.18,-2.93,169.42,34.37,-163.09,-30.37
,,0,2025-11-18T17:43:25.957Z,16.29,3.28,15.85,-1.83,157.18,9.56,-137.27,-75.97
,,0,2025-11-18T17:43:25.967Z,20.18,0.62,19.62,-4.67,163.09,-34.3,-123.97,-100.26
,,0,2025-11-18T17:43:25.977Z,5.93,2.17,4.91,-2.52,192.39,-27.8,-135.85,-133.36
,,0,2025-11-18T17:43:25.987Z,13.14,-1.7,12.16,-4.69,199.5,-35.44,-103.56,-166.79
,,0,2025-11-18T17:43:25.997Z,4.32,-3.53,1.71,-1.81,188.37,-67.59,-69.02,-161.72
,,0,2025-11-18T17:43:26.007Z,3.49,-2.96,0.06,-1.84,195.51,-70.46,-59.34,-172.45
,,0,2025-11-18T17:43:26.017Z,8.15,-3.11,-7.5,-0.71,198.34,-63.77,-54.88,-179.61
,,0,2025-11-18T17:43:26.027Z,5.17,-4.49,-2.43,-0.85,210.23,-75.4,-49.23,-189.97
,,0,2025-11-18T17:43:26.037Z,5.94,-4.2,-4.14,-0.68,209.48,-83.53,-54.95,-184.08
,,0,2025-11-18T17:43:26.047Z,6.83,-4.48,-5.08,-0.86,213.93,-84.25,-65.47,-185.43
,,0,2025-11-18T17:43:26.057Z,7.05,-4.56,-5.16,-1.49,216.99,-92.31,-69.95,-183.5
,,0,2025-11-18T17:43:26.067Z,8.11,-4.51,-6.47,-1.89,221.06,-101.98,-75.73,-180.92
,,0,2025-11-18T17:43:26.077Z,8.87,-4.66,-7.24,-2.11,223.39,-105.51,-86.57,-176.85
,,0,2025-11-18T17:43:26.239Z,13.03,-1.18,-11.78,5.46,275.17,-100.87,-158.26,-201.24
,,0,2025-11-18T17:43:26.248Z,13.46,-0.67,-11.69,6.65,279.86,-115.74,-160.31,-198.06
,,0,2025-11-18T17:43:26.258Z,12.36,0.04,-9.84,7.48,284.43,-139.6,-157.11,-191.64
,,0,2025-11-18T17:43:26.268Z,10.92,-0.6,-8.62,6.68,290.29,-163.92,-153.05,-184.32
,,0,2025-11-18T17:43:26.278Z,10.65,-1.22,-9.23,5.18,296.65,-189.89,-149.18,-172.31
,,0,2025-11-18T17:43:26.288Z,12.4,-1.2,-11.75,3.79,294.75,-195.33,-142.85,-168.27
,,0,2025-11-18T17:43:26.298Z,14.6,-0.95,-14.24,3.09,285.35,-166.54,-142.15,-182.98
,,0,2025-11-18T17:43:26.308Z,14.81,-0.38,-14.21,4.18,274.86,-126.1,-138.56,-201.11
,,0,2025-11-18T17:43:26.318Z,14.33,-0.55,-12.71,6.61,259,-101.21,-141.73,-191.7
,,0,2025-11-18T17:43:26.328Z,12.78,-0.06,-10.52,7.26,248.71,-92.82,-146.32,-178.4
,,0,2025-11-18T17:43:26.338Z,12.26,0.75,-10.18,6.79,240.06,-95.98,-146.02,-164.61
,,0,2025-11-18T17:43:26.348Z,11.85,0.95,-10.15,6.05,236.14,-104.82,-143.96,-155.08
,,0,2025-11-18T17:43:26.358Z,10.54,0.43,-9.36,4.83,238.25,-123.14,-144.53,-143.92
,,0,2025-11-18T17:43:26.368Z,9.3,-0.01,-8.44,3.91,245.55,-145.31,-146.99,-132.56
,,0,2025-11-18T17:43:26.378Z,10.09,-0.3,-9.53,3.3,252.38,-155.58,-151.82,-128.23
,,0,2025-11-18T17:43:26.388Z,12.07,0.19,-11.58,3.41,248.19,-137.69,-155.33,-136.07
,,0,2025-11-18T17:43:26.398Z,11.89,0.77,-11.49,2.96,236.63,-117.25,-152.24,-138.09
,,0,2025-11-18T17:43:26.408Z,10.63,1.06,-9.99,3.49,225.48,-98.85,-147.68,-138.79
,,0,2025-11-18T17:43:26.418Z,10.87,1.44,-10.07,3.85,216.75,-85.92,-147.21,-133.89
,,0,2025-11-18T17:43:26.428Z,12.15,1.88,-11.36,3.88,207.73,-78.51,-146.44,-124.67
,,0,2025-11-18T17:43:26.438Z,11.42,2.13,-10.55,3.83,200.04,-74.73,-143.46,-117.69
,,0,2025-11-18T17:43:26.448Z,10.47,1.62,-9.7,3.58,194.25,-79.8,-138.98,-109.77
,,0,2025-11-18T17:43:26.458Z,9.77,1.12,-9.2,3.11,189.95,-90,-137.63,-95.08
,,0,2025-11-18T17:43:26.468Z,9.92,1.37,-9.32,3.1,186.89,-93.87,-137.42,-85.03
,,0,2025-11-18T17:43:26.478Z,11.62,2.1,-10.85,3.59,180.2,-87.21,-135.68,-80.36
,,0,2025-11-18T17:43:26.488Z,14.27,3.03,-13.33,4.08,166.11,-60.3,-132.66,-79.75
,,0,2025-11-18T17:43:26.498Z,15.71,3.57,-14.69,4.27,151.61,-23.87,-128.24,-77.28
,,0,2025-11-18T17:43:26.508Z,14.34,3.53,-13.2,4.35,135.96,-3.91,-119,-65.65
,,0,2025-11-18T17:43:26.518Z,13.35,3.12,-12.24,4.3,121.24,-2.28,-110.93,-48.86
,,0,2025-11-18T17:43:26.528Z,14.09,3.21,-12.97,4.45,111.17,-5.75,-106.46,-31.49
,,0,2025-11-18T17:43:26.538Z,14.34,3.55,-13.14,4.51,101.85,-5.83,-99.65,-20.22
,,0,2025-11-18T17:43:26.548Z,14.62,3.55,-13.36,4.77,92.7,-3.78,-92.08,-9.95
,,0,2025-11-18T17:43:26.558Z,15.42,3.39,-14.27,4.77,87.11,0.28,-87.09,1.59
,,0,2025-11-18T17:43:26.568Z,16.05,3.68,-14.94,4.59,86,7.1,-85,10.98
,,0,2025-11-18T17:43:26.578Z,16.8,4.15,-15.73,4.2,88.54,17.5,-85.4,15.53
,,0,2025-11-18T17:43:26.588Z,17.01,4.92,-15.86,3.67,91.97,26.59,-86.14,18.22
,,0,2025-11-18T17:43:26.598Z,16.06,5.78,-14.67,3.05,91.35,27.24,-84.36,22.08
,,0,2025-11-18T17:43:26.608Z,16.07,6.92,-14.24,2.74,87.45,24.84,-81.31,20.49
,,0,2025-11-18T17:43:26.618Z,16.78,7.81,-14.71,2.11,82.82,22.72,-78.34,14.38
,,0,2025-11-18T17:43:26.628Z,17.43,8.65,-15.05,1.51,73.79,21.15,-70.35,6.94
,,0,2025-11-18T17:43:26.638Z,17.89,9.16,-15.34,0.93,60.73,17.67,-57.86,-5.23
,,0,2025-11-18T17:43:26.648Z,18.23,9.22,-15.73,0.2,49.1,11.66,-44.37,-17.5
,,0,2025-11-18T17:43:26.658Z,18.21,9.1,-15.77,-0.47,44.15,2.94,-32.66,-29.57
,,0,2025-11-18T17:43:26.668Z,18.07,8.86,-15.72,-1.04,46.55,-7.95,-20.47,-41.05
,,0,2025-11-18T17:43:26.678Z,17.93,8.47,-15.72,-1.63,54.88,-19.25,-7.53,-50.84
,,0,2025-11-18T17:43:26.688Z,17.08,7.84,-15.03,-2.05,65.87,-31.31,3.39,-57.85
,,0,2025-11-18T17:43:26.698Z,15.63,7.06,-13.76,-2.28,77.75,-38.82,10.96,-66.47
,,0,2025-11-18T17:43:26.708Z,14.15,5.9,-12.69,-2.06,86.69,-41.34,14.4,-74.82
,,0,2025-11-18T17:43:26.718Z,12.53,4.89,-11.41,-1.74,91.57,-39.39,14.15,-81.45
,,0,2025-11-18T17:43:26.728Z,11.3,4.02,-10.49,-1.2,93.13,-33.86,12.03,-85.92
,,0,2025-11-18T17:43:26.738Z,10.04,3.26,-9.46,-0.88,92.46,-30.46,10.53,-86.66
,,0,2025-11-18T17:43:26.748Z,8.33,2.22,-8.02,-0.34,89.3,-29.58,8.45,-83.83
,,0,2025-11-18T17:43:26.758Z,7.22,1.22,-7.11,0.1,84.95,-29.99,4.12,-79.37
,,0,2025-11-18T17:43:26.768Z,6.38,0.08,-6.34,0.65,78.39,-29.55,-1.75,-72.59
,,0,2025-11-18T17:43:26.778Z,5.61,-0.72,-5.44,1.14,69.9,-27.53,-5.93,-63.98
,,0,2025-11-18T17:43:26.788Z,4.84,-1.11,-4.38,1.73,59.16,-23.86,-8.88,-53.4
,,0,2025-11-18T17:43:26.798Z,4.4,-1.22,-3.49,2.37,47.67,-17.5,-11.22,-42.9
,,0,2025-11-18T17:43:26.808Z,4.17,-1.37,-2.91,2.67,35.93,-7.2,-12.85,-32.78
,,0,2025-11-18T17:43:26.818Z,4.15,-1.08,-2.57,3.08,26.52,4.2,-10.07,-24.17
,,0,2025-11-18T17:43:26.828Z,3.79,-1.06,-1.79,3.17,25.13,17.6,-6.09,-16.87
,,0,2025-11-18T17:43:26.838Z,3.65,-0.93,-0.9,3.41,28.59,26.79,-0.54,-9.95
,,0,2025-11-18T17:43:26.848Z,3.59,-0.92,-0.82,3.37,32.04,31.92,1.56,-2.35
,,0,2025-11-18T17:43:26.858Z,3.62,-0.79,-1.56,3.17,36.42,36.29,2.47,1.93
,,0,2025-11-18T17:43:26.868Z,3.78,-0.44,-2.53,2.78,45.43,44.95,5.97,2.88
,,0,2025-11-18T17:43:26.878Z,3.77,-0.37,-2.91,2.37,56.69,55.88,9.48,-1.08
,,0,2025-11-18T17:43:26.888Z,3.58,-0.53,-3.02,1.84,57.99,55.87,15.47,-1.27
,,0,2025-11-18T17:43:26.898Z,4.17,-0.73,-3.81,1.54,58.56,56.4,15.78,-0.47
,,0,2025-11-18T17:43:26.908Z,4.75,-0.47,-4.59,1.12,62.21,60.01,16.37,0.93
,,0,2025-11-18T17:43:26.918Z,5.57,-0.31,-5.47,1.01,68.2,65.8,17.77,2.32
,,0,2025-11-18T17:43:26.928Z,5.81,-0.25,-5.72,0.97,70.67,67.4,19.66,8.12
,,0,2025-11-18T17:43:26.938Z,6.49,-0.24,-6.43,0.9,75.31,73.56,13.62,8.63
,,0,2025-11-18T17:43:26.948Z,8.36,0.25,-8.33,0.67,80.62,78.81,12.66,11.32
,,0,2025-11-18T17:43:26.958Z,10.23,0.84,-10.19,0.42,83.49,81.46,13.28,12.62
,,0,2025-11-18T17:43:26.968Z,11.41,1.18,-11.35,0.33,82.22,79.89,15.21,12.08
,,0,2025-11-18T17:43:26.978Z,12.23,1.25,-12.17,0.12,78.82,76.24,15.9,12.18
,,0,2025-11-18T17:43:26.988Z,12.99,1.14,-12.94,-0.18,74.19,72.14,13.92,10.34
,,0,2025-11-18T17:43:26.998Z,13.85,1.36,-13.76,-0.84,65.39,63.82,11.95,7.79
,,0,2025-11-18T17:43:27.008Z,15.07,2.1,-14.86,-1.33,55.31,54.27,8.87,5.94
,,0,2025-11-18T17:43:27.018Z,17.27,3.16,-16.91,-1.49,46.08,45.4,7.4,-2.7
,,0,2025-11-18T17:43:27.028Z,18.74,4.07,-18.19,-1.97,38.23,35.87,7.63,-10.79
,,0,2025-11-18T17:43:27.038Z,19.11,4.75,-18.34,-2.47,31.85,24.63,6.7,-19.06
,,0,2025-11-18T17:43:27.048Z,19.53,5.19,-18.62,-2.73,27.18,11.63,1.82,-24.5
,,0,2025-11-18T17:43:27.058Z,19.91,5.4,-18.97,-2.73,28.55,0.56,-4.5,-28.19
,,0,2025-11-18T17:43:27.068Z,19.64,5.54,-18.65,-2.67,33.44,-2.98,-9.63,-31.89
,,0,2025-11-18T17:43:27.078Z,18.17,4.67,-17.35,-2.66,43.84,2.75,-17.19,-40.24
,,0,2025-11-18T17:43:27.088Z,16.34,3.27,-15.88,-2.01,50.95,8.87,-25.34,-43.3
,,0,2025-11-18T17:43:27.098Z,14.8,2.16,-14.6,-1.22,53.62,10.76,-35.46,-38.76
,,0,2025-11-18T17:43:27.108Z,14.36,1.21,-14.3,-0.59,58.43,8.29,-47.06,-33.62
,,0,2025-11-18T17:43:27.118Z,13.81,1,-13.77,0.24,63.6,6.14,-56.05,-29.44
,,0,2025-11-18T17:43:27.128Z,12.47,0.57,-12.39,1.22,67.41,4.32,-61.15,-28.05
,,0,2025-11-18T17:43:27.138Z,11.26,-0.17,-11.08,1.96,70.56,2.24,-66.98,-22.07
,,0,2025-11-18T17:43:27.148Z,10.47,-0.52,-10.19,2.34,72.03,-3.24,-71.03,-11.5
,,0,2025-11-18T17:43:27.158Z,9.61,-0.77,-9.31,2.25,75.31,-10.68,-74.53,-1.67
,,0,2025-11-18T17:43:27.168Z,9.41,-1.11,-9.1,2.14,79.68,-7.65,-79.29,1.75
,,0,2025-11-18T17:43:27.178Z,9.88,-1.35,-9.6,1.88,83.1,5.37,-82.91,1.78
,,0,2025-11-18T17:43:27.188Z,9.75,-1.76,-9.47,1.48,90.01,21.86,-87.28,2.47
,,0,2025-11-18T17:43:27.198Z,9.03,-1.97,-8.77,0.93,93.12,33.21,-86.98,1.84
,,0,2025-11-18T17:43:27.208Z,7.98,-2.11,-7.66,0.77,92.85,36.5,-85.31,3.16
,,0,2025-11-18T17:43:27.218Z,7.4,-2.05,-7.07,0.74,93.35,37.89,-85.16,5.12
,,0,2025-11-18T17:43:27.228Z,7.34,-2,-7.04,0.61,93.66,37.99,-85.37,6.38
,,0,2025-11-18T17:43:27.238Z,6.83,-1.89,-6.55,0.41,94.43,38.45,-86.02,6.22
,,0,2025-11-18T17:43:27.248Z,6.75,-1.72,-6.52,0.37,95.16,40.12,-86.18,4.31
,,0,2025-11-18T17:43:27.258Z,6.59,-1.52,-6.39,0.43,94.09,39.51,-85.36,2.18
,,0,2025-11-18T17:43:27.268Z,6.28,-1.37,-6.1,0.59,93.42,39.23,-84.78,-0.47
,,0,2025-11-18T17:43:27.278Z,6.23,-1.58,-6,0.58,93.81,39.83,-84.84,-3.99
,,0,2025-11-18T17:43:27.288Z,6.09,-1.39,-5.91,0.4,96.34,40.38,-87.31,-5.27
,,0,2025-11-18T17:43:27.298Z,6.48,-1.06,-6.39,0.09,97.18,37.98,-89.19,-6.82
,,0,2025-11-18T17:43:27.308Z,7.24,-0.67,-7.19,-0.63,100.3,35.53,-93.26,-9.98
,,0,2025-11-18T17:43:27.318Z,7.41,-0.28,-7.32,-1.11,101.35,32.27,-95.18,-13.11
,,0,2025-11-18T17:43:27.328Z,6.9,-0.1,-6.69,-1.68,103.02,28.27,-97.76,-15.98
,,0,2025-11-18T17:43:27.338Z,7.48,-0.4,-6.96,-2.72,112.01,31.42,-105.21,-22.14
,,0,2025-11-18T17:43:27.348Z,8.59,0.2,-8.09,-2.9,126.03,45.81,-112.93,-32.1
,,0,2025-11-18T17:43:27.358Z,9.37,0.78,-8.52,-3.82,137.37,59.74,-116.73,-40.94
,,0,2025-11-18T17:43:27.368Z,9.04,1.2,-7.92,-4.18,145.87,67.5,-121.3,-44.81
,,0,2025-11-18T17:43:27.378Z,9.13,1.39,-8.1,-3.96,150.74,66.06,-126.88,-47.55
,,0,2025-11-18T17:43:27.388Z,9.64,2.01,-8.72,-3.59,153.94,59.62,-134.03,-46.67
,,0,2025-11-18T17:43:27.398Z,9.93,2.88,-8.8,-3.59,151.63,50.52,-137.63,-38.72
,,0,2025-11-18T17:43:27.408Z,9.98,3.8,-8.51,-3.57,149.79,41.26,-140.69,-30.68
,,0,2025-11-18T17:43:27.418Z,10.1,4.02,-8.24,-4.25,153,31.08,-147.28,-27.39
,,0,2025-11-18T17:43:27.428Z,10.83,3.86,-8.39,-5.65,159.71,27.92,-154.72,-28.11
,,0,2025-11-18T17:43:27.438Z,12.69,4.48,-9.94,-6.49,173.39,33.38,-167.06,-32.27
,,0,2025-11-18T17:43:27.448Z,14.7,5.79,-11.68,-6.79,183.07,44.37,-173.09,-39.8
,,0,2025-11-18T17:43:27.458Z,15.9,6.85,-12.38,-7.26,193.98,55.29,-179.85,-47.17
,,0,2025-11-18T17:43:27.468Z,16.65,8.02,-12.72,-7.15,202.72,59.14,-187.34,-50.02
,,0,2025-11-18T17:43:27.478Z,16.79,8.57,-12.84,-6.59,209.93,55.47,-196.15,-50.2
,,0,2025-11-18T17:43:27.488Z,16.19,8.82,-12.32,-5.71,219.65,54.97,-205.92,-53.1
,,0,2025-11-18T17:43:27.498Z,15.22,8.79,-11.24,-5.3,228.81,58.47,-214.87,-52.6
,,0,2025-11-18T17:43:27.508Z,14.81,8.79,-10.77,-5.11,235.68,65.89,-220.37,-51.41
,,0,2025-11-18T17:43:27.518Z,14.71,8.94,-10.63,-4.84,237.63,70.28,-221.76,-48.51
,,0,2025-11-18T17:43:27.528Z,14.61,9.17,-10.48,-4.44,236.6,73.55,-219.89,-47.14
,,0,2025-11-18T17:43:27.538Z,13.79,8.8,-9.61,-4.51,236.86,76.57,-219.86,-43.61
,,0,2025-11-18T17:43:27.548Z,13.41,8.65,-9.24,-4.43,236.83,79.49,-218.92,-42.95
,,0,2025-11-18T17:43:27.558Z,12.57,8.47,-8.26,-4.26,239.05,80.92,-221.08,-41.44
,,0,2025-11-18T17:43:27.568Z,12.18,8.45,-7.93,-3.76,237.31,83.24,-218.96,-37.98
,,0,2025-11-18T17:43:27.578Z,11.98,8.36,-7.99,-3.15,240.23,88.89,-220.44,-34.89
,,0,2025-11-18T17:43:27.588Z,12.28,8.46,-8.6,-2.3,243.38,99.53,-219.73,-32.34
,,0,2025-11-18T17:43:27.598Z,12.35,8.44,-8.83,-1.81,244.12,107.79,-217.64,-24.63
,,0,2025-11-18T17:43:27.608Z,11.85,8.19,-8.15,-2.59,244.18,115.09,-214.66,-17.34
,,0,2025-11-18T17:43:27.618Z,11.69,8.22,-7.74,-3,242.75,120.79,-210.31,-10.32
,,0,2025-11-18T17:43:27.628Z,11.86,8.09,-7.88,-3.62,243.05,125.75,-207.93,-5.08
,,0,2025-11-18T17:43:27.638Z,12.08,8.28,-7.95,-3.75,243.54,131.82,-204.77,-1.51
,,0,2025-11-18T17:43:27.648Z,11.85,8.32,-7.65,-3.55,247.33,141.51,-202.85,-0.98
,,0,2025-11-18T17:43:27.658Z,12.13,8.51,-8.18,-2.76,249.49,151.21,-198.45,-0.01
,,0,2025-11-18T17:43:27.668Z,11.98,8.64,-8.04,-2.04,252.5,161.31,-194.23,3.19
,,0,2025-11-18T17:43:27.678Z,11.86,8.75,-7.89,-1.41,258.32,174.24,-190.61,6.15
,,0,2025-11-18T17:43:27.688Z,11.85,8.71,-7.93,-1.28,261.35,183.22,-185.97,12.2
,,0,2025-11-18T17:43:27.698Z,11.96,8.87,-7.92,-1.32,262.37,188.41,-181.58,19.21
,,0,2025-11-18T17:43:27.708Z,12.09,9.04,-7.79,-1.95,259.95,188.86,-176.34,28.43
,,0,2025-11-18T17:43:27.718Z,12.14,9.26,-7.4,-2.63,252.72,183.88,-169.37,37.06
,,0,2025-11-18T17:43:27.728Z,12.28,9.43,-7.39,-2.71,244.66,177.69,-162.61,42.92
,,0,2025-11-18T17:43:27.738Z,12.78,9.66,-7.99,-2.5,238.76,176.06,-154.73,45.47
,,0,2025-11-18T17:43:27.748Z,13.1,9.71,-8.53,-2.11,237.06,179.86,-146.97,47.42
,,0,2025-11-18T17:43:27.758Z,13.4,9.85,-8.96,-1.52,234.38,182.32,-138.43,50.32
,,0,2025-11-18T17:43:27.768Z,13.23,9.9,-8.69,-1.2,233.07,187.54,-129.58,48.55
,,0,2025-11-18T17:43:27.778Z,13.25,10.28,-8.32,-0.78,230.45,192,-119.27,44.95
,,0,2025-11-18T17:43:27.788Z,12.56,10.25,-7.23,-0.68,220.58,186.13,-107.98,48.47
,,0,2025-11-18T17:43:27.798Z,11.74,10.13,-5.92,-0.2,203.41,170.31,-97.08,54.28
,,0,2025-11-18T17:43:27.808Z,11.68,10.15,-5.77,0.04,184.94,151.41,-88.52,58.68
,,0,2025-11-18T17:43:27.818Z,11.57,10.07,-5.7,-0.02,170.43,136.89,-80.1,62.39
,,0,2025-11-18T17:43:27.828Z,11.58,10.04,-5.78,0.23,161.43,129.69,-72.42,63.21
,,0,2025-11-18T17:43:27.838Z,11.59,9.88,-6.05,-0.03,155.67,126.8,-66.15,61.46
,,0,2025-11-18T17:43:27.848Z,12.35,10.14,-7.06,-0.1,158.97,136.34,-59.98,55.53
,,0,2025-11-18T17:43:27.858Z,13.18,10.58,-7.85,0.31,167.69,153.34,-50.42,45.44
,,0,2025-11-18T17:43:27.868Z,12.62,10.98,-6.16,0.92,170.05,160.9,-40.27,37.5
,,0,2025-11-18T17:43:27.878Z,11.96,11.41,-3.04,1.93,151.83,144.09,-27.92,38.88
,,0,2025-11-18T17:43:27.888Z,12.31,11.77,-1.72,3.15,127.03,119.89,-13.71,39.71
,,0,2025-11-18T17:43:27.898Z,12.94,12.01,-2.31,4.23,103.01,95.36,-0.17,38.96
,,0,2025-11-18T17:43:27.908Z,13.3,12.07,-2.82,4.82,85.73,75.89,11.34,38.23
,,0,2025-11-18T17:43:27.918Z,12.69,11.75,-2.85,3.83,76.31,65.69,18.37,34.21
,,0,2025-11-18T17:43:27.928Z,12.08,11.47,-2.66,2.7,74.31,66.58,23.93,22.73
,,0,2025-11-18T17:43:27.938Z,12.65,11.92,-3.54,2.33,87.74,81.66,31.83,3.92
,,0,2025-11-18T17:43:27.948Z,13.91,12.59,-5.15,2.92,111.73,103.4,38.88,-16.74
,,0,2025-11-18T17:43:27.958Z,14.39,13.34,-4.31,3.26,118.24,104.89,44.97,-30.93
,,0,2025-11-18T17:43:27.968Z,14.46,13.89,-1.07,3.9,101.67,77.82,56.48,-33.02
,,0,2025-11-18T17:43:27.978Z,14.57,14,-0.12,4.04,92.89,45.14,71.44,-38.56
,,0,2025-11-18T17:43:27.988Z,14.5,13.92,-1.41,3.81,102.64,20.28,85.84,-52.49
,,0,2025-11-18T17:43:27.998Z,14.38,13.7,-2.94,3.24,116.16,-3.32,96.49,-64.59
,,0,2025-11-18T17:43:28.008Z,13.57,13.13,-2.42,2.42,133.22,-17.52,107.25,-77.06
,,0,2025-11-18T17:43:28.018Z,14.54,14.27,-1.8,2.09,150.57,-34.99,112.23,-94.08
,,0,2025-11-18T17:43:28.028Z,15.64,15.54,-1.24,1.27,175.06,-60.99,122.92,-108.7
,,0,2025-11-18T17:43:28.038Z,16.85,16.8,-1.05,0.68,206.1,-89.49,136.86,-125.45
,,0,2025-11-18T17:43:28.048Z,17.99,17.97,-0.84,-0.12,241.48,-112.96,151.27,-150.56
,,0,2025-11-18T17:43:28.058Z,19.41,19.33,-1.46,-1.01,272.11,-122.6,168.24,-175.24
,,0,2025-11-18T17:43:28.068Z,19.75,19.62,-2.04,-0.97,300.9,-136.7,188.87,-190.21
,,0,2025-11-18T17:43:28.078Z,19.73,19.62,-1.59,-1.33,343.17,-163.48,218.02,-208.59
,,0,2025-11-18T17:43:28.088Z,19.78,19.62,-0.27,-2.52,399.68,-214.37,250.05,-226.42
,,0,2025-11-18T17:43:28.098Z,20.07,19.62,0.99,-4.13,427.37,-250.14,250.13,-239.82
,,0,2025-11-18T17:43:28.108Z,21.38,19.62,0.52,-8.48,433.25,-250.14,250.13,-250.14
,,0,2025-11-18T17:43:28.118Z,23.68,19.62,-2.21,-13.08,433.25,-250.14,250.13,-250.14
,,0,2025-11-18T17:43:28.128Z,25.33,19.62,-4.62,-15.34,433.25,-250.14,250.13,-250.14
,,0,2025-11-18T17:43:28.138Z,27.8,19.62,-5.12,-19.02,433.25,-250.14,250.13,-250.14
,,0,2025-11-18T17:43:28.148Z,28.03,19.62,-4.01,-19.62,433.25,-250.14,250.13,-250.14
,,0,2025-11-18T17:43:28.158Z,27.99,19.62,-3.68,-19.62,433.25,-250.14,250.13,-250.14
,,0,2025-11-18T17:43:28.168Z,28.01,19.62,-3.83,-19.62,433.25,-250.14,250.13,-250.14
,,0,2025-11-18T17:43:28.178Z,27.83,19.62,-2.17,-19.62,433.25,-250.14,250.13,-250.14
,,0,2025-11-18T17:43:28.188Z,28.22,19.62,-5.16,-19.62,399.18,-250.14,250.13,-184.97
,,0,2025-11-18T17:43:28.198Z,29.58,19.62,-10.24,-19.62,363.57,-250.14,250.13,-83.95
,,0,2025-11-18T17:43:28.208Z,31.71,19.62,-15.34,-19.62,356.34,-250.14,250.13,42.91
,,0,2025-11-18T17:43:28.218Z,31.32,14.53,-19.62,-19.62,402.5,-250.14,250.13,192.02
,,0,2025-11-18T17:43:28.228Z,28.33,5.72,-19.62,-19.62,433.24,-250.14,250.13,250.13
,,0,2025-11-18T17:43:28.238Z,27.83,-2.11,-19.62,-19.62,433.24,-250.14,250.13,250.13
,,0,2025-11-18T17:43:28.419Z,25.8,8.81,14.25,-19.62,329.62,207.92,-53.44,250.13
,,0,2025-11-18T17:43:28.428Z,26.81,8.02,16.42,-19.62,320.38,172.79,-101.11,250.13
,,0,2025-11-18T17:43:28.438Z,28.6,6.95,19.62,-19.62,281.02,132.11,-133.85,208.81
,,0,2025-11-18T17:43:28.448Z,27.73,5.69,19.62,-18.75,233.58,96.32,-163.91,135.71
,,0,2025-11-18T17:43:28.458Z,27.59,3.74,19.62,-19.03,213.82,18.56,-187.5,101.08
,,0,2025-11-18T17:43:28.468Z,12.69,2.59,9.27,-8.27,134.32,53.92,-122.7,-8.89
,,0,2025-11-18T17:43:28.478Z,22.61,6.15,19.62,-9.4,190.67,52.45,-180.59,-31.51
,,0,2025-11-18T17:43:28.488Z,11.13,-5.44,9.45,-2.26,185.08,28.82,-172.29,-61.15
,,0,2025-11-18T17:43:28.498Z,12,7.64,8.73,-3.05,225.08,9.58,-100.69,-201.08
,,0,2025-11-18T17:43:28.508Z,14.82,-6.32,13.16,-2.56,216.81,-18.27,-113.89,-183.57
,,0,2025-11-18T17:43:28.518Z,11.32,-2.18,10.7,-2.99,217.37,-70.7,-123.47,-164.34
,,0,2025-11-18T17:43:28.528Z,3.56,-1.75,2.75,-1.43,237.75,-79.47,-105.15,-197.87
,,0,2025-11-18T17:43:28.538Z,3.76,-3.41,0.65,-1.45,244.08,-71.04,-92.37,-214.47
,,0,2025-11-18T17:43:28.548Z,3.37,-2.97,0.12,-1.6,251.93,-76.66,-82.03,-225.53
,,0,2025-11-18T17:43:28.558Z,4.67,-3.37,-2.88,-1.45,264.87,-67.04,-68.2,-247
,,0,2025-11-18T17:43:28.568Z,7.37,-5.03,-4.85,-2.34,262.39,-69.64,-75.47,-241.46
,,0,2025-11-18T17:43:28.578Z,8.54,-5.4,-5.83,-3.12,260.37,-56.72,-81.76,-240.6
,,0,2025-11-18T17:43:28.588Z,5.71,-3.61,-3.96,-1.96,259.13,-81.11,-98.06,-225.73
,,0,2025-11-18T17:43:28.598Z,8.45,-4.21,-7.15,-1.59,269.73,-82.21,-103.37,-235.18
,,0,2025-11-18T17:43:28.608Z,10.05,-5.87,-8.03,-1.41,247.23,-76.53,-117.55,-203.59
,,0,2025-11-18T17:43:28.618Z,9.42,-5.05,-7.77,-1.72,235.8,-75.94,-133.15,-179.18
,,0,2025-11-18T17:43:28.628Z,9.61,-2.46,-9.12,-1.77,248.96,-81.44,-144.69,-185.52
,,0,2025-11-18T17:43:28.638Z,11.19,-1.97,-10.95,-1.25,265.9,-88.65,-152.48,-198.98
,,0,2025-11-18T17:43:28.648Z,11.44,-2.69,-11.1,-0.54,270,-94.01,-163.16,-193.5
,,0,2025-11-18T17:43:28.658Z,9.98,-2.26,-9.72,0.25,276.08,-109.85,-175.44,-182.69
,,0,2025-11-18T17:43:28.668Z,8.29,-2,-8.04,-0.18,286.45,-128.5,-186.47,-175.41
,,0,2025-11-18T17:43:28.678Z,8.39,-1.62,-8.23,-0.13,292.33,-145.73,-193.21,-163.97
,,0,2025-11-18T17:43:28.688Z,10.17,-1.08,-10.11,0.11,294.25,-150.74,-196.24,-159.21
,,0,2025-11-18T17:43:28.698Z,13.12,-0.1,-13.08,1.02,289.23,-142.44,-197.85,-155.63
,,0,2025-11-18T17:43:28.708Z,14.86,0.91,-14.69,2.01,281.61,-124.18,-196.94,-158.42
,,0,2025-11-18T17:43:28.718Z,14.71,2,-14.12,3.6,279.8,-113.63,-194.66,-165.79
,,0,2025-11-18T17:43:28.728Z,12.33,1.7,-11.09,5.12,273.17,-119.58,-193.24,-151.6
,,0,2025-11-18T17:43:28.738Z,11.25,1.63,-9.57,5.68,270.92,-131.3,-184.91,-148.22
,,0,2025-11-18T17:43:28.748Z,12.83,1.08,-11.63,5.32,264.23,-135.18,-172.83,-147.23
,,0,2025-11-18T17:43:28.758Z,12.89,0.16,-12.17,4.23,261.96,-141.02,-163.52,-148.31
,,0,2025-11-18T17:43:28.768Z,11.84,-0.62,-11.12,3.99,264.29,-148.05,-157.93,-151.62
,,0,2025-11-18T17:43:28.778Z,13.61,-0.44,-12.52,5.33,267.32,-145.62,-152.59,-164.23
,,0,2025-11-18T17:43:28.788Z,17.19,-0.06,-15.81,6.76,258.14,-119.98,-143.32,-178.05
,,0,2025-11-18T17:43:28.798Z,18.89,0,-17.52,7.07,250.5,-86.18,-135.99,-191.92
,,0,2025-11-18T17:43:28.808Z,16.44,-0.26,-15.42,5.69,247.15,-65.15,-131.99,-198.53
,,0,2025-11-18T17:43:28.818Z,14.58,-0.08,-13.95,4.24,248.04,-59.39,-133.73,-200.28
,,0,2025-11-18T17:43:28.828Z,13.94,-0.11,-13.71,2.51,251.04,-66.48,-136.54,-199.89
,,0,2025-11-18T17:43:28.838Z,12.82,-0.2,-12.77,1.05,254.95,-80.56,-141.92,-195.88
,,0,2025-11-18T17:43:28.848Z,12.47,0.37,-12.45,0.55,261.66,-102.01,-148.81,-189.52
,,0,2025-11-18T17:43:28.858Z,14.63,2.27,-14.27,2.33,265.66,-115.62,-152.08,-184.6
,,0,2025-11-18T17:43:28.868Z,17.07,3.55,-16.05,4.6,262.69,-116.09,-154.31,-178.09
,,0,2025-11-18T17:43:28.878Z,17.5,3.94,-15.84,6.3,251.14,-97.53,-153.24,-173.43
,,0,2025-11-18T17:43:28.888Z,17.25,3.38,-15.57,6.61,233.45,-74,-149.49,-163.33
,,0,2025-11-18T17:43:28.898Z,16.22,2.61,-14.7,6.35,218.32,-53.38,-146.45,-152.86
,,0,2025-11-18T17:43:28.908Z,13.58,1.72,-12.63,4.66,205.1,-53.11,-142.96,-137.14
,,0,2025-11-18T17:43:28.918Z,9.09,0.6,-8.76,2.35,194.26,-64.31,-140.61,-117.6
,,0,2025-11-18T17:43:28.928Z,8.04,0.23,-7.92,1.38,194.61,-79.59,-140.88,-108.13
,,0,2025-11-18T17:43:28.938Z,10.28,1.18,-10.04,1.88,194.18,-88.93,-139.77,-101.31
,,0,2025-11-18T17:43:28.948Z,13.09,2.17,-12.61,2.79,190.06,-82.5,-139.23,-99.66
,,0,2025-11-18T17:43:28.958Z,13.9,2.61,-12.97,4.27,182.49,-66.04,-136.37,-101.71
,,0,2025-11-18T17:43:28.968Z,13.26,2.63,-11.68,5.71,176.53,-49.81,-133.15,-104.65
,,0,2025-11-18T17:43:28.978Z,12.29,2.57,-10.27,6.24,168.38,-41.27,-127.69,-101.7
,,0,2025-11-18T17:43:28.988Z,10.93,2.47,-9.02,5.67,158.87,-41.65,-120.45,-94.85
,,0,2025-11-18T17:43:28.998Z,8.38,2.08,-7.06,4.01,149.64,-49.93,-113.55,-83.7
,,0,2025-11-18T17:43:29.008Z,7.43,2.36,-6.18,3.38,139.55,-51.24,-104.96,-76.37
,,0,2025-11-18T17:43:29.018Z,9.52,2.61,-8.48,3.47,130.8,-39.37,-97.97,-77.2
,,0,2025-11-18T17:43:29.028Z,11.4,2.75,-10.44,3.66,125.67,-23.83,-94.31,-79.56
,,0,2025-11-18T17:43:29.038Z,11.61,2.9,-10.52,3.97,119.34,-7.71,-90.13,-77.84
,,0,2025-11-18T17:43:29.048Z,11.04,3.08,-9.74,4.17,112.08,2.49,-85.71,-72.18
,,0,2025-11-18T17:43:29.058Z,10.92,3.54,-9.22,4.64,105.38,10.31,-83.25,-63.79
,,0,2025-11-18T17:43:29.068Z,10.61,3.95,-8.61,4.79,95.63,14.59,-78.42,-52.76
,,0,2025-11-18T17:43:29.078Z,9.43,3.88,-7.54,4.14,83.93,15.61,-72.05,-40.11
,,0,2025-11-18T17:43:29.088Z,9.33,3.72,-7.87,3.34,74.54,18.44,-66.85,-27.35
,,0,2025-11-18T17:43:29.098Z,11.25,4.15,-10.04,2.93,71.07,29.79,-62.04,-17.73
,,0,2025-11-18T17:43:29.108Z,13.15,4.35,-12.12,2.68,79.69,53.31,-57.72,-13.34
,,0,2025-11-18T17:43:29.118Z,13.57,4.52,-12.55,2.47,84.12,67.7,-49.89,-2
,,0,2025-11-18T17:43:29.128Z,13.12,4.57,-12.08,2.31,81.66,67.4,-43.88,14.11
,,0,2025-11-18T17:43:29.138Z,12.85,5.02,-11.65,2.04,77.58,60.11,-40.32,27.94
,,0,2025-11-18T17:43:29.148Z,13.02,5.67,-11.57,1.87,75.45,53.92,-38.95,35.61
,,0,2025-11-18T17:43:29.158Z,13.41,6.14,-11.84,1.35,71.07,47.87,-37.94,36.33
,,0,2025-11-18T17:43:29.168Z,13.29,6.36,-11.65,0.81,64.94,38.56,-38.32,35.53
,,0,2025-11-18T17:43:29.178Z,14.32,6.97,-12.49,0.64,58.3,32.15,-37.37,31.14
,,0,2025-11-18T17:43:29.188Z,15.95,7.68,-13.97,0.64,52.07,30.03,-35.84,22.92
,,0,2025-11-18T17:43:29.198Z,17.04,8.57,-14.72,0.64,45.86,31.06,-31.04,13.24
,,0,2025-11-18T17:43:29.208Z,17.4,9.52,-14.54,0.74,40.61,33.98,-22.21,-1.02
,,0,2025-11-18T17:43:29.218Z,17.72,9.93,-14.67,0.36,39.88,34.59,-12.51,-15.42
,,0,2025-11-18T17:43:29.228Z,18.05,10.03,-15.01,-0.27,40.71,29.98,-2.78,-27.4
,,0,2025-11-18T17:43:29.238Z,18.28,10.07,-15.2,-1.28,40.96,19.22,5.07,-35.81
,,0,2025-11-18T17:43:29.248Z,17.85,10.04,-14.63,-2.02,49.72,4.18,11.67,-48.15
,,0,2025-11-18T17:43:29.258Z,16.7,9.4,-13.59,-2.4,67.69,-8.99,18.35,-64.53
,,0,2025-11-18T17:43:29.268Z,15.61,8.21,-13.04,-2.47,80.14,-18.29,21.62,-74.97
,,0,2025-11-18T17:43:29.278Z,14.58,7.16,-12.51,-2.17,86.1,-22.34,21.64,-80.29
,,0,2025-11-18T17:43:29.288Z,13.3,6.45,-11.51,-1.69,89.73,-22.67,20.63,-84.33
,,0,2025-11-18T17:43:29.298Z,11.81,5.54,-10.35,-1.33,92.74,-23.55,19.66,-87.52
,,0,2025-11-18T17:43:29.308Z,10.17,4.3,-9.19,-0.78,92.68,-22.79,17.37,-88.14
,,0,2025-11-18T17:43:29.318Z,9,3.14,-8.43,-0.26,87.68,-20.1,15.15,-83.99
,,0,2025-11-18T17:43:29.328Z,8.1,2,-7.84,0.11,78.04,-17.14,12.32,-75.13
,,0,2025-11-18T17:43:29.338Z,6.91,1.08,-6.79,0.72,66.05,-15.54,11.17,-63.21
,,0,2025-11-18T17:43:29.348Z,5.5,0.27,-5.29,1.48,54.54,-13.94,10.31,-51.71
,,0,2025-11-18T17:43:29.358Z,4.82,-0.37,-4.14,2.45,42.19,-10.43,10.31,-39.56
,,0,2025-11-18T17:43:29.368Z,4.94,-0.9,-3.66,3.19,29.08,-4.3,11.13,-26.52
,,0,2025-11-18T17:43:29.378Z,5.16,-1.14,-3.38,3.72,19.46,3.5,13.99,-13.06
,,0,2025-11-18T17:43:29.388Z,5.15,-1.31,-2.92,4.04,21.63,11.92,17.78,-3.15
,,0,2025-11-18T17:43:29.398Z,5.15,-1.47,-2.68,4.14,28.89,18.66,21.65,4.23
,,0,2025-11-18T17:43:29.408Z,4.97,-1.57,-2.24,4.14,35.58,21.76,25.93,10.95
,,0,2025-11-18T17:43:29.418Z,4.09,-1.66,-1.62,3.37,40.77,17.73,30.81,19.97
,,0,2025-11-18T17:43:29.428Z,3.79,-2.13,-1.22,2.89,42.71,13.67,31.52,25.37
,,0,2025-11-18T17:43:29.438Z,4.29,-2.38,-2.39,2.65,42.4,14.02,29.86,26.63
,,0,2025-11-18T17:43:29.448Z,5.66,-2.2,-4.6,2.45,46.18,27.82,27.86,24.13
,,0,2025-11-18T17:43:29.458Z,7.2,-1.89,-6.59,2.2,63.89,56.41,26.19,14.6
,,0,2025-11-18T17:43:29.468Z,7.82,-1.44,-7.34,2.27,87.3,82.03,28.67,8.34
,,0,2025-11-18T17:43:29.478Z,7.53,-1.28,-7.04,2.34,97.75,92.73,29.23,10.16
,,0,2025-11-18T17:43:29.488Z,6.72,-1.08,-6.23,2.27,93.67,88.2,27.92,14.69
,,0,2025-11-18T17:43:29.498Z,7.29,-0.86,-6.84,2.38,82.94,77.81,23.28,16.79
,,0,2025-11-18T17:43:29.508Z,8.27,-0.12,-7.88,2.49,70.53,65.75,18.18,17.92
,,0,2025-11-18T17:43:29.518Z,9.21,0.66,-8.89,2.31,56.73,51.37,14.05,19.55
,,0,2025-11-18T17:43:29.528Z,10.49,1.11,-10.25,1.93,44.28,37.75,10.62,20.57
,,0,2025-11-18T17:43:29.538Z,12.24,1.32,-12.11,1.2,35.95,29.39,4.47,20.21
,,0,2025-11-18T17:43:29.548Z,13.98,1.91,-13.84,0.21,30.42,24.55,-3.02,17.71
,,0,2025-11-18T17:43:29.558Z,16.27,2.87,-15.99,-0.83,31.07,27.91,-10.52,8.72
,,0,2025-11-18T17:43:29.568Z,18.72,3.93,-18.19,-1.94,36.96,31.4,-19.13,-3.79
,,0,2025-11-18T17:43:29.578Z,19.79,5.36,-18.86,-2.72,39.28,29.08,-23.23,-12.54
,,0,2025-11-18T17:43:29.588Z,18.95,6.23,-17.59,-3.31,41.6,20.57,-30.68,-19.14
,,0,2025-11-18T17:43:29.598Z,18.61,6.46,-17.11,-3.46,49.62,11.24,-42.3,-23.37
,,0,2025-11-18T17:43:29.608Z,18.95,6.43,-17.52,-3.26,59.52,1.81,-54.05,-24.87
,,0,2025-11-18T17:43:29.618Z,18.63,6.19,-17.31,-2.98,67.2,-10.5,-62.76,-21.6
,,0,2025-11-18T17:43:29.628Z,17.16,5.74,-15.96,-2.58,76.39,-26.89,-69.14,-18.24
,,0,2025-11-18T17:43:29.638Z,15.29,5.03,-14.32,-1.78,86.94,-42.84,-73.77,-16.75
,,0,2025-11-18T17:43:29.648Z,13.21,3.79,-12.59,-1.25,98.3,-53.06,-81.21,-15.85
,,0,2025-11-18T17:43:29.658Z,12.1,3.13,-11.68,-0.44,103.87,-55.37,-86.36,-16.24
,,0,2025-11-18T17:43:29.668Z,11.47,2.16,-11.26,0.05,105.26,-47.27,-92.67,-16.01
,,0,2025-11-18T17:43:29.678Z,10.91,1.57,-10.79,0.24,106.47,-34.98,-99.44,-14.96
,,0,2025-11-18T17:43:29.688Z,10.53,1.21,-10.46,0.4,106.25,-18.51,-103.28,-16.69
,,0,2025-11-18T17:43:29.698Z,10.2,0.74,-10.17,0.27,107.65,-2.31,-106.18,-17.63
,,0,2025-11-18T17:43:29.708Z,9.87,0.3,-9.87,0.11,111.1,11.77,-109.18,-16.86
,,0,2025-11-18T17:43:29.718Z,9.57,0.11,-9.57,0.01,112.7,23.75,-108.89,-16.73
,,0,2025-11-18T17:43:29.728Z,8.87,0.03,-8.87,0.21,111.78,32.65,-105.56,-16.92
,,0,2025-11-18T17:43:29.738Z,7.9,-0.28,-7.89,0.26,111.51,39.63,-102.79,-17.27
,,0,2025-11-18T17:43:29.748Z,7.28,-0.54,-7.25,0.46,110.9,44.59,-100.44,-14.95
,,0,2025-11-18T17:43:29.758Z,6.84,-0.68,-6.78,0.62,107.43,45.59,-96.73,-10.31
,,0,2025-11-18T17:43:29.768Z,6,-0.82,-5.89,0.77,102.49,40.69,-93.95,-4.73
,,0,2025-11-18T17:43:29.778Z,5.38,-0.86,-5.28,0.59,96.64,33.9,-90.5,-0.01
,,0,2025-11-18T17:43:29.788Z,5.64,-0.91,-5.49,0.87,94.42,31.8,-88.9,0.81
,,0,2025-11-18T17:43:29.798Z,5.96,-0.88,-5.81,0.97,93.19,35.94,-85.98,0.85
,,0,2025-11-18T17:43:29.808Z,5.6,-0.92,-5.44,0.91,91.67,42.49,-81.21,1.6
,,0,2025-11-18T17:43:29.818Z,5.2,-1.09,-5.02,0.77,90.46,47.53,-76.92,2.71
,,0,2025-11-18T17:43:29.828Z,5.04,-1.11,-4.86,0.73,92.2,53.17,-75.31,1.66
,,0,2025-11-18T17:43:29.838Z,5.07,-0.85,-4.95,0.67,94.3,59.79,-72.9,1.9
,,0,2025-11-18T17:43:29.848Z,5.11,-0.81,-5.03,0.43,96.5,66.31,-70.11,0.33
,,0,2025-11-18T17:43:29.858Z,4.86,-0.83,-4.78,-0.23,94.01,66.53,-66.42,0.95
,,0,2025-11-18T17:43:29.868Z,4.72,-0.68,-4.64,-0.49,93.07,65.55,-66.02,-2.56
,,0,2025-11-18T17:43:29.878Z,4.84,-0.52,-4.74,-0.84,92.73,64.02,-66.41,-9.45
,,0,2025-11-18T17:43:29.888Z,5.04,-0.29,-4.87,-1.27,91.7,60.9,-66.86,-15.12
,,0,2025-11-18T17:43:29.898Z,5.57,-0.34,-5.23,-1.88,91.71,56.85,-68.56,-21.89
,,0,2025-11-18T17:43:29.908Z,6.27,0.12,-5.68,-2.66,92.84,49.13,-73.15,-29.24
,,0,2025-11-18T17:43:29.918Z,7.2,0.97,-5.94,-3.94,99.97,42.92,-81.52,-38.81
,,0,2025-11-18T17:43:29.928Z,9.16,2.17,-7.17,-5.28,113.82,38.47,-93.66,-51.98
,,0,2025-11-18T17:43:29.938Z,12.08,3.6,-9.39,-6.69,131.99,35.17,-108,-67.23
,,0,2025-11-18T17:43:29.948Z,14.65,5.1,-11.28,-7.85,148.38,33.22,-120.31,-80.24
,,0,2025-11-18T17:43:29.958Z,16.28,6.58,-12.28,-8.42,169.82,37.18,-135.59,-95.26
,,0,2025-11-18T17:43:29.968Z,16.93,7.55,-12.51,-8.55,189.26,42.41,-151.44,-105.28
,,0,2025-11-18T17:43:29.978Z,16.61,8.32,-12.04,-7.85,204.84,49.47,-165.73,-109.76
,,0,2025-11-18T17:43:29.988Z,16.42,9.27,-11.58,-7.03,212.71,53.27,-179.53,-100.89
,,0,2025-11-18T17:43:29.998Z,16.31,9.95,-11.07,-6.67,211.63,48.62,-187.66,-84.89
,,0,2025-11-18T17:43:30.008Z,15.97,10.42,-10.18,-6.55,214.41,45.51,-194.63,-77.59
,,0,2025-11-18T17:43:30.018Z,16.04,10.69,-10.31,-6.07,215.01,44.59,-197.81,-71.5
,,0,2025-11-18T17:43:30.028Z,16.48,10.96,-11.06,-5.38,216.54,44.04,-202.98,-61.25
,,0,2025-11-18T17:43:30.038Z,16.82,11.31,-11.58,-4.56,217.95,44.66,-206.47,-53.65
,,0,2025-11-18T17:43:30.048Z,16.16,11.13,-10.99,-4.05,218.37,46.62,-207.73,-48.58
,,0,2025-11-18T17:43:30.058Z,14.56,10.61,-9.36,-3.47,216.73,46.75,-207.28,-42.69
,,0,2025-11-18T17:43:30.068Z,13.03,9.78,-8.13,-2.8,216.18,48.58,-206.98,-39.18
,,0,2025-11-18T17:43:30.078Z,12.6,9.21,-8.41,-1.83,216.21,56.17,-205.57,-36.51
,,0,2025-11-18T17:43:30.088Z,12.29,8.56,-8.65,-1.75,218.54,64.39,-206.68,-29.94
,,0,2025-11-18T17:43:30.098Z,12.1,8.32,-8.61,-1.7,220.28,75.24,-205.28,-26.85
,,0,2025-11-18T17:43:30.108Z,11.4,7.87,-8,-2,223.11,83.98,-205.15,-25.27
,,0,2025-11-18T17:43:30.118Z,11.2,7.76,-7.85,-1.88,225.37,94.65,-203.18,-23.45
,,0,2025-11-18T17:43:30.128Z,11.6,7.6,-8.63,-1.49,228.97,106.76,-201.66,-19.07
,,0,2025-11-18T17:43:30.138Z,12.04,7.69,-9.18,-1.25,234.05,120.84,-199.82,-15.79
,,0,2025-11-18T17:43:30.148Z,11.77,7.62,-8.87,-1.33,240.17,137.66,-196.34,-13.56
,,0,2025-11-18T17:43:30.158Z,11.78,7.75,-8.8,-1.15,244.03,151.69,-191,-7.71
,,0,2025-11-18T17:43:30.168Z,11.13,7.48,-8.03,-1.86,245.51,156.76,-188.95,1.4
,,0,2025-11-18T17:43:30.178Z,11.14,8.01,-7.42,-2.22,240.61,154.55,-183.99,12.35
,,0,2025-11-18T17:43:30.188Z,11.65,8.49,-7.75,-1.91,237.58,154.3,-179.85,17.09
,,0,2025-11-18T17:43:30.198Z,12.01,8.65,-8.13,-1.83,237.26,158.77,-175.24,19.32
,,0,2025-11-18T17:43:30.208Z,12.1,8.79,-8.16,-1.64,236.91,164.67,-168.6,24.18
,,0,2025-11-18T17:43:30.218Z,12.04,8.73,-8.14,-1.62,238.52,170.17,-164.34,30.47
,,0,2025-11-18T17:43:30.228Z,12.08,8.91,-8,-1.63,239.17,173.95,-159.66,38.09
,,0,2025-11-18T17:43:30.238Z,12.17,8.98,-8.02,-1.82,238.08,176.24,-154.48,41.89
,,0,2025-11-18T17:43:30.248Z,12.75,9.04,-8.72,-2.23,237.01,178.52,-149.44,44.4
,,0,2025-11-18T17:43:30.258Z,13.2,9.26,-9.07,-2.5,234.19,179.81,-142.82,45.96
,,0,2025-11-18T17:43:30.268Z,13.07,9.44,-8.73,-2.31,233.36,184.17,-136.24,44.5
,,0,2025-11-18T17:43:30.278Z,12.94,9.56,-8.41,-2.27,234.95,190.78,-129.41,45.34
,,0,2025-11-18T17:43:30.288Z,12.29,9.5,-7.46,-2.27,235.57,195.07,-123.1,47.82
,,0,2025-11-18T17:43:30.298Z,11.99,9.62,-6.94,-1.75,230.06,193.26,-114.37,49.99
,,0,2025-11-18T17:43:30.308Z,11.84,9.61,-6.75,-1.5,220.11,185.29,-106.65,52.37
,,0,2025-11-18T17:43:30.318Z,11.77,9.78,-6.42,-1.26,208.84,175.6,-99.08,54.43
,,0,2025-11-18T17:43:30.328Z,11.91,10.07,-6.35,-0.54,197.73,168.03,-89.49,53.44
,,0,2025-11-18T17:43:30.338Z,12.11,10.11,-6.65,-0.45,187.89,161.14,-81.34,52.17
,,0,2025-11-18T17:43:30.348Z,11.88,9.99,-6.41,-0.57,173.8,148.52,-73.04,53.04
,,0,2025-11-18T17:43:30.358Z,11.62,10.25,-5.45,-0.5,155.06,131.18,-63.83,52.55
,,0,2025-11-18T17:43:30.368Z,11.52,10.27,-5.17,-0.55,138.83,117.83,-54.04,49.69
,,0,2025-11-18T17:43:30.378Z,11.63,10.38,-5.24,-0.13,128.21,111.52,-44.13,45.32
,,0,2025-11-18T17:43:30.388Z,11.86,10.4,-5.69,0.37,119.26,105.11,-34.5,44.55
,,0,2025-11-18T17:43:30.398Z,11.61,10.38,-5.16,0.72,110.86,97.56,-27.83,44.68
,,0,2025-11-18T17:43:30.408Z,11.5,10.59,-4.39,0.9,102.06,91.96,-18.71,40.12
,,0,2025-11-18T17:43:30.418Z,11.43,10.81,-3.53,1.13,83.69,72.86,-6.91,40.58
,,0,2025-11-18T17:43:30.584Z,18.41,18.01,-3.73,0.64,299.33,-161.16,233.95,-94.3
,,0,2025-11-18T17:43:30.592Z,19.15,18.93,-2.91,0.12,322.49,-177.08,249.82,-101.18
,,0,2025-11-18T17:43:30.602Z,19.83,19.62,-2.48,-1.48,335.4,-186.57,250.13,-122.97
,,0,2025-11-18T17:43:30.612Z,19.89,19.62,-2.4,-2.23,352.86,-209.73,250.13,-134.01
,,0,2025-11-18T17:43:30.622Z,19.89,19.62,-1.42,-2.97,378.09,-247.38,250.13,-138.52
,,0,2025-11-18T17:43:30.632Z,20.07,19.62,-0.64,-4.18,385.5,-250.14,250.13,-153.21
,,0,2025-11-18T17:43:30.642Z,20.28,19.62,-0.13,-5.12,391.36,-250.14,250.13,-167.41
,,0,2025-11-18T17:43:30.652Z,21.5,19.62,0.46,-8.78,393.01,-250.14,250.13,-171.24
,,0,2025-11-18T17:43:30.662Z,24.59,19.62,-0.46,-14.82,391.23,-250.14,250.13,-167.12
,,0,2025-11-18T17:43:30.672Z,27.93,19.62,-3.23,-19.62,387.27,-250.14,250.13,-157.63
,,0,2025-11-18T17:43:30.682Z,28.46,19.62,-6.33,-19.62,381.57,-250.14,250.13,-143.05
,,0,2025-11-18T17:43:30.692Z,28.97,19.62,-8.34,-19.62,368.37,-250.14,250.13,-102.76
,,0,2025-11-18T17:43:30.702Z,29.1,19.62,-8.76,-19.62,357.76,-250.14,250.13,-53.48
,,0,2025-11-18T17:43:30.712Z,28.34,19.62,-5.76,-19.62,353.75,-250.14,250.13,2.35
,,0,2025-11-18T17:43:30.722Z,27.94,19.62,-3.25,-19.62,362.35,-250.14,250.13,78.53
,,0,2025-11-18T17:43:30.732Z,25.41,13.76,-8.46,-19.62,402.89,-250.14,250.13,192.83
,,0,2025-11-18T17:43:30.742Z,26.65,8.76,-15.76,-19.62,433.24,-250.14,250.13,250.13
,,0,2025-11-18T17:43:30.752Z,27.78,1.32,-19.62,-19.62,433.24,-250.14,250.13,250.13
,,0,2025-11-18T17:43:30.762Z,28.79,-7.68,-19.62,-19.62,433.24,-250.14,250.13,250.13
,,0,2025-11-18T17:43:30.772Z,28.38,-5.96,-19.62,-19.62,433.24,-250.14,250.13,250.13
,,0,2025-11-18T17:43:30.782Z,27.82,2.03,-19.62,-19.62,393.68,-172.79,250.13,250.13
,,0,2025-11-18T17:43:30.792Z,27.59,9.38,-19.62,-16.98,354.19,-17.98,250.13,250.13
,,0,2025-11-18T17:43:30.802Z,23.43,13.36,-12.67,-14.49,358.69,59.4,250.13,250.13
,,0,2025-11-18T17:43:30.812Z,20.74,11.14,-13.11,-11.58,367.69,100.33,250.13,250.13
,,0,2025-11-18T17:43:30.822Z,22.5,11.42,-18.37,-6.18,377.78,132.63,250.13,250.13
,,0,2025-11-18T17:43:30.832Z,24.72,14.8,-19.62,-2.6,390.72,165.92,250.13,250.13
,,0,2025-11-18T17:43:30.842Z,27.83,19.28,-19.62,-4.22,413.37,213.88,250.13,250.13
,,0,2025-11-18T17:43:30.852Z,29.07,19.62,-19.62,-8.67,433.24,250.13,250.13,250.13
,,0,2025-11-18T17:43:30.862Z,30.45,19.62,-19.62,-12.54,433.24,250.13,250.13,250.13
,,0,2025-11-18T17:43:30.872Z,31.69,19.62,-19.62,-15.31,433.24,250.13,250.13,250.13
,,0,2025-11-18T17:43:30.882Z,33.98,19.62,-19.62,-19.62,428.75,250.13,242.27,250.13
,,0,2025-11-18T17:43:30.892Z,33.52,19.62,-18.8,-19.62,403.13,250.13,193.36,250.13
,,0,2025-11-18T17:43:30.902Z,30.65,19.62,-13.03,-19.62,373.03,250.13,118.41,250.13
,,0,2025-11-18T17:43:30.912Z,28.05,19.62,-4.11,-19.62,355.76,250.13,37.84,250.13
,,0,2025-11-18T17:43:30.922Z,28.52,19.62,6.61,-19.62,353.75,250.13,-2.6,250.13
,,0,2025-11-18T17:43:30.932Z,29.45,17.74,12.95,-19.62,356.76,247.92,-57.01,250.13
,,0,2025-11-18T17:43:30.942Z,29.38,14.21,16.62,-19.62,326.6,191.41,-86.38,250.13
,,0,2025-11-18T17:43:30.952Z,30.2,11.92,19.62,-19.62,295.35,139.2,-115.5,233.48
,,0,2025-11-18T17:43:30.962Z,28.98,9.96,19.62,-18.86,224.17,90.82,-132.56,156.3
,,0,2025-11-18T17:43:30.972Z,25.92,7.6,19.62,-15.14,177.23,53.69,-143.44,89.18
,,0,2025-11-18T17:43:30.982Z,23.08,2.51,17.92,-14.32,139.26,-3.02,-129.31,51.63
,,0,2025-11-18T17:43:30.992Z,20.22,7.34,17.51,-6.97,128.48,16.14,-120.21,-42.36
,,0,2025-11-18T17:43:31.002Z,18.74,3.27,18.06,-3.76,139.67,-36.38,-114.17,-71.76
,,0,2025-11-18T17:43:31.012Z,12.83,1.98,12.32,-3.01,161.68,-40.76,-108.55,-112.67
,,0,2025-11-18T17:43:31.022Z,9.92,0.32,9.68,-2.14,181.97,-48.19,-95.79,-147.02
,,0,2025-11-18T17:43:31.032Z,7.5,-1.83,7,-1.95,190.11,-52.77,-79.27,-164.54
,,0,2025-11-18T17:43:31.042Z,5.3,-2.35,4.06,-2.46,198.31,-55.42,-69.8,-177.15
,,0,2025-11-18T17:43:31.052Z,4.23,-2.2,1.81,-3.13,205.71,-60.04,-58.48,-187.86
,,0,2025-11-18T17:43:31.062Z,5.18,-4.01,0.12,-3.27,207.46,-65.66,-47.65,-190.94
,,0,2025-11-18T17:43:31.072Z,6.2,-4.71,-2.63,-3.05,207.94,-64.89,-46.24,-192.06
,,0,2025-11-18T17:43:31.082Z,6.93,-4.75,-4.6,-2.08,210.55,-58.56,-49.44,-196.11
,,0,2025-11-18T17:43:31.092Z,7.41,-5.13,-4.94,-2.04,213.71,-53.44,-53.6,-199.86
,,0,2025-11-18T17:43:31.102Z,6.62,-4.8,-4.2,-1.8,211.95,-67.28,-54.87,-193.35
,,0,2025-11-18T17:43:31.112Z,7.01,-5.24,-4.11,-2.2,214.16,-72.77,-67.11,-189.91
,,0,2025-11-18T17:43:31.122Z,8.47,-5.49,-5.84,-2.76,211.53,-78.96,-77.6,-180.24
,,0,2025-11-18T17:43:31.132Z,7.5,-3.95,-6.34,-0.72,211.57,-75.6,-86.6,-177.62
,,0,2025-11-18T17:43:31.142Z,9.56,-4.52,-8.12,-2.24,233.59,-65.98,-117.18,-191
,,0,2025-11-18T17:43:31.152Z,9.27,-3.78,-8.46,0.13,229.41,-68.9,-123.3,-180.78
,,0,2025-11-18T17:43:31.162Z,10.78,-2.69,-10.4,0.93,241.22,-60.02,-134,-191.38
,,0,2025-11-18T17:43:31.172Z,8.94,-2.35,-8.52,1.31,244.99,-56.32,-141.3,-192.05
,,0,2025-11-18T17:43:31.182Z,10.15,-3.69,-9.33,-1.5,249.38,-76.48,-134.65,-195.48
,,0,2025-11-18T17:43:31.192Z,6.16,-2.75,-5.44,0.91,233.77,-72.11,-160.62,-153.79
,,0,2025-11-18T17:43:31.202Z,8.26,-1.54,-8.12,0.09,255.38,-95.73,-168.22,-166.6
,,0,2025-11-18T17:43:31.212Z,11.23,-1.15,-11.16,0.55,264.74,-93.92,-167.14,-182.57
,,0,2025-11-18T17:43:31.222Z,12.15,-1.69,-11.86,2,263.15,-87.54,-167.76,-182.87
,,0,2025-11-18T17:43:31.232Z,12.07,-0.74,-11.52,3.53,261,-77.25,-173.29,-179.23
,,0,2025-11-18T17:43:31.242Z,11.89,0.49,-11.03,4.41,258.59,-78.6,-169.02,-179.22
,,0,2025-11-18T17:43:31.252Z,11.53,0.27,-10.5,4.76,255.57,-81.9,-163.09,-178.92
,,0,2025-11-18T17:43:31.262Z,11.42,-0.46,-10.62,4.18,253.15,-86.48,-157.88,-177.98
,,0,2025-11-18T17:43:31.272Z,12.15,-0.45,-11.54,3.77,251.96,-87.01,-153,-180.29
,,0,2025-11-18T17:43:31.282Z,12.87,-0.26,-12.28,3.86,251.66,-87.98,-147.42,-184.01
,,0,2025-11-18T17:43:31.292Z,14.37,-0.04,-13.46,5.04,252.23,-80.43,-141.88,-192.41
,,0,2025-11-18T17:43:31.302Z,15.98,0.01,-14.9,5.77,251.29,-61.92,-135.91,-202.09
,,0,2025-11-18T17:43:31.312Z,15.58,-0.13,-14.44,5.87,245.04,-50.32,-125.45,-204.39
,,0,2025-11-18T17:43:31.322Z,13.79,-0.32,-12.61,5.58,237.77,-52.98,-116.31,-200.5
,,0,2025-11-18T17:43:31.332Z,12.87,-0.67,-11.91,4.81,232.72,-68.9,-108.73,-193.89
,,0,2025-11-18T17:43:31.342Z,12.64,-1.06,-11.82,4.35,229.92,-78.85,-105.18,-188.63
,,0,2025-11-18T17:43:31.352Z,12.6,-1.5,-11.92,3.81,229.78,-89.96,-103.43,-184.42
,,0,2025-11-18T17:43:31.362Z,12.6,-1.68,-11.98,3.49,229.47,-98.21,-105,-178.85
,,0,2025-11-18T17:43:31.372Z,14.08,-0.96,-13.18,4.84,228.67,-91.14,-107.55,-180.05
,,0,2025-11-18T17:43:31.382Z,15.42,-0.2,-14.14,6.16,223.24,-72.34,-109.53,-180.57
,,0,2025-11-18T17:43:31.392Z,15.83,0.2,-14.36,6.65,215.15,-53.44,-111.76,-175.92
,,0,2025-11-18T17:43:31.402Z,13.76,0.16,-12.37,6.04,205.95,-51.46,-112.47,-164.67
,,0,2025-11-18T17:43:31.412Z,10.77,-0.16,-9.6,4.89,196.46,-57.39,-111.56,-151.19
,,0,2025-11-18T17:43:31.422Z,10.63,-0.45,-9.78,4.13,190.93,-62.29,-114.11,-139.83
,,0,2025-11-18T17:43:31.432Z,11.73,-0.55,-11.24,3.29,189.31,-64.78,-117.97,-133.13
,,0,2025-11-18T17:43:31.442Z,11.41,-0.72,-11.11,2.49,190.14,-68.09,-121.22,-129.7
,,0,2025-11-18T17:43:31.452Z,11.2,-0.46,-10.84,2.8,191.35,-71.29,-122.71,-128.36
,,0,2025-11-18T17:43:31.462Z,11.56,-0.02,-11.12,3.17,191.8,-73.99,-124.21,-126.02
,,0,2025-11-18T17:43:31.472Z,11.1,0.71,-10.41,3.77,187.98,-72.99,-122.34,-122.64
,,0,2025-11-18T17:43:31.482Z,11.89,1.5,-11.01,4.23,182.11,-63.28,-119.96,-121.53
,,0,2025-11-18T17:43:31.492Z,12.57,2.08,-11.56,4.47,173.58,-49.2,-116.48,-118.92
,,0,2025-11-18T17:43:31.502Z,11.99,2.37,-10.85,4.52,166.73,-38.16,-109.9,-119.43
,,0,2025-11-18T17:43:31.512Z,11.06,2.22,-10.09,3.95,162.3,-32.84,-105.94,-118.49
,,0,2025-11-18T17:43:31.522Z,10,2.13,-9.19,3.3,161.41,-33.79,-105.21,-117.65
,,0,2025-11-18T17:43:31.532Z,9.63,2.35,-8.9,2.85,158.95,-38.26,-105.85,-112.24
,,0,2025-11-18T17:43:31.542Z,10.51,2.94,-9.52,3.33,154.2,-39.79,-105.14,-105.55
,,0,2025-11-18T17:43:31.552Z,11.83,3.49,-10.65,3.81,150.3,-39.74,-102.97,-102.02
,,0,2025-11-18T17:43:31.562Z,12.94,3.8,-11.57,4.39,140.48,-35.1,-98.34,-93.98
,,0,2025-11-18T17:43:31.572Z,13.29,3.82,-11.86,4.62,129.56,-30.23,-92.09,-85.97
,,0,2025-11-18T17:43:31.582Z,12.74,3.71,-11.42,4.25,120.83,-27.11,-87.15,-79.18
,,0,2025-11-18T17:43:31.592Z,11.54,3.23,-10.43,3.73,111.07,-26.37,-82.11,-69.98
,,0,2025-11-18T17:43:31.602Z,11.02,3.1,-9.95,3.59,100.94,-27.07,-76.3,-60.3
,,0,2025-11-18T17:43:31.612Z,11.49,3.08,-10.43,3.7,94.94,-24.58,-74.77,-53.09
,,0,2025-11-18T17:43:31.622Z,12.26,3.34,-10.88,4.56,90.76,-13.9,-73.82,-50.94
,,0,2025-11-18T17:43:31.632Z,13.28,3.31,-11.52,5.72,83.31,0.03,-69.53,-45.89
,,0,2025-11-18T17:43:31.642Z,13.43,2.75,-11.66,6.08,72.03,13.56,-62.79,-32.58
,,0,2025-11-18T17:43:31.652Z,13.04,2.6,-11.33,5.92,64.27,22.79,-57.8,-16.43
,,0,2025-11-18T17:43:31.662Z,12.47,3.09,-10.6,5.8,59.64,29.65,-51.62,-3.69
,,0,2025-11-18T17:43:31.672Z,11.82,3.15,-10.21,5.06,54.64,31.02,-44.28,7.91
,,0,2025-11-18T17:43:31.682Z,10.84,2.82,-9.67,4.01,52.7,34.32,-37.02,15.15
,,0,2025-11-18T17:43:31.692Z,12.02,3.25,-11.05,3.45,56.49,43.85,-30.69,18.09
,,0,2025-11-18T17:43:31.702Z,13.78,4.16,-12.72,3.29,63.37,54.07,-25.71,20.78
,,0,2025-11-18T17:43:31.712Z,14.58,5.54,-13.11,3.14,69.04,61.13,-22.46,22.91
,,0,2025-11-18T17:43:31.722Z,14.99,6.57,-13.13,3.02,69.52,62.68,-19.15,23.2
,,0,2025-11-18T17:43:31.732Z,15.55,7.21,-13.46,2.94,68.32,62.47,-17.25,21.62
,,0,2025-11-18T17:43:31.742Z,16.45,7.62,-14.33,2.64,74.87,69.67,-18.8,19.96
,,0,2025-11-18T17:43:31.752Z,16.99,8.11,-14.78,2.05,80.48,75.9,-19.71,18.09
,,0,2025-11-18T17:43:31.762Z,15.44,8.39,-12.95,0.61,80.32,75.9,-19.65,17.46
,,0,2025-11-18T17:43:31.772Z,16.19,9.11,-13.38,-0.27,81.22,78.6,-18.97,7.69
,,0,2025-11-18T17:43:31.782Z,17.46,9.64,-14.55,-0.53,81.14,79.12,-16.53,-7.12
,,0,2025-11-18T17:43:31.792Z,17.4,9.5,-14.56,-0.56,83.54,79.21,-14.05,-22.52
,,0,2025-11-18T17:43:31.802Z,17.05,9.43,-14.18,-0.89,84.71,74.98,-12.34,-37.42
,,0,2025-11-18T17:43:31.812Z,16.89,9.45,-13.97,-0.83,87.52,70.4,-10.22,-50.98
,,0,2025-11-18T17:43:31.822Z,16.89,9.44,-13.98,-0.86,96.18,67.98,-9.05,-67.43
,,0,2025-11-18T17:43:31.832Z,16.24,9.13,-13.41,-0.71,107.25,66.09,-7.02,-84.17
,,0,2025-11-18T17:43:31.842Z,14.84,8.33,-12.27,-0.48,116.08,64.09,-6.58,-96.56
,,0,2025-11-18T17:43:31.852Z,13.47,7.5,-11.18,-0.49,118.49,59.64,-8.4,-102.05
,,0,2025-11-18T17:43:31.862Z,11.77,6.75,-9.64,-0.36,116.96,54.58,-11.75,-102.78
,,0,2025-11-18T17:43:31.872Z,10.53,6.12,-8.56,0.09,112.8,47.76,-14.22,-101.19
,,0,2025-11-18T17:43:31.882Z,9.21,5.25,-7.55,0.6,106.6,40.78,-15.92,-97.2
,,0,2025-11-18T17:43:31.892Z,8.02,3.98,-6.87,1.12,99.67,36.6,-16.31,-91.26
,,0,2025-11-18T17:43:31.902Z,7.56,2.85,-6.78,1.76,98.66,44.02,-14.52,-87.09
,,0,2025-11-18T17:43:31.912Z,6.64,1.76,-5.97,2.32,102.36,59.27,-12.4,-82.52
,,0,2025-11-18T17:43:31.922Z,5.5,0.95,-4.55,2.94,101.95,71.44,-7.34,-72.36
,,0,2025-11-18T17:43:31.932Z,4.61,0.34,-2.69,3.73,95.76,77.21,-1.35,-56.63
,,0,2025-11-18T17:43:31.942Z,4.29,-0.09,-1.05,4.16,89.3,78.76,2.73,-42
,,0,2025-11-18T17:43:31.952Z,4.21,-0.14,-0.49,4.18,85,79.42,6.49,-29.58
,,0,2025-11-18T17:43:31.962Z,3.84,-0.16,-0.13,3.84,81.8,78.24,13.18,-19.88
,,0,2025-11-18T17:43:31.972Z,3.49,-0.23,0.19,3.47,80.81,77.6,18.58,-12.73
,,0,2025-11-18T17:43:31.982Z,3.26,-0.49,0.26,3.22,79.75,75.47,24.97,-6.42
,,0,2025-11-18T17:43:31.992Z,2.95,-0.79,-0.38,2.81,83.09,77.77,29.02,-3.6
,,0,2025-11-18T17:43:32.002Z,3.18,-0.94,-1.73,2.5,92.99,87.05,32.33,-4.78
,,0,2025-11-18T17:43:32.012Z,4.46,-0.82,-3.77,2.23,118.69,112.56,35.96,-11.23
,,0,2025-11-18T17:43:32.022Z,6.2,0.09,-5.73,2.37,150.51,143.18,42.1,-19.44
,,0,2025-11-18T17:43:32.032Z,6.74,-0.35,-6.62,1.23,192.77,185.18,41.82,-33.46
,,0,2025-11-18T17:43:32.042Z,4.75,-0.71,-4.61,0.91,197.28,190.62,39.03,-32.59
,,0,2025-11-18T17:43:32.052Z,3.03,-0.44,-2.37,1.83,179.15,174.78,31.27,-23.89
,,0,2025-11-18T17:43:32.062Z,5.47,1.48,-3.56,3.88,155.94,150.51,38.66,-13.05
,,0,2025-11-18T17:43:32.072Z,9.2,2.69,-6.67,5.75,160.09,149.6,53.48,-19.66
,,0,2025-11-18T17:43:32.082Z,12,2.18,-10.29,5.77,178.84,169.02,51.35,-27.96
,,0,2025-11-18T17:43:32.092Z,12.41,2.27,-10.2,6.7,189.73,181.99,47.59,-24.69
,,0,2025-11-18T17:43:32.102Z,11.42,3.42,-8.33,7.02,198.83,192.08,44.97,-24.85
,,0,2025-11-18T17:43:32.112Z,10.17,3.71,-7.34,5.98,202.42,194.68,44.62,-32.89
,,0,2025-11-18T17:43:32.122Z,10.41,3.74,-8,5.52,223.73,213.64,47.48,-46.47
,,0,2025-11-18T17:43:32.132Z,12.56,4.26,-9.53,6.99,226.94,216.05,42.27,-55.11
,,0,2025-11-18T17:43:32.142Z,14.95,5.84,-10.48,8.92,212.28,200.08,34.53,-61.95
,,0,2025-11-18T17:43:32.152Z,16.44,7.7,-10.18,10.36,189.51,175.55,26.98,-66.09
,,0,2025-11-18T17:43:32.162Z,17.79,8.96,-10.56,11.17,171.14,153.85,20.72,-72.05
,,0,2025-11-18T17:43:32.172Z,19.02,9.65,-11.81,11.37,163.25,143.48,10.31,-77.18
,,0,2025-11-18T17:43:32.182Z,19.94,10.35,-12.22,11.89,149.6,127.76,0.31,-77.82
,,0,2025-11-18T17:43:32.192Z,20.6,10.79,-12.86,11.93,126.69,103.95,-9.53,-71.8
,,0,2025-11-18T17:43:32.202Z,20.23,10.95,-12.28,11.77,93.5,72.2,-12.99,-57.97
,,0,2025-11-18T17:43:32.212Z,18.95,9.98,-11.46,11.32,67.49,49.98,-12.45,-43.61
,,0,2025-11-18T17:43:32.222Z,17.24,8.69,-10.31,10.74,56.43,45.46,-12.34,-31.07
,,0,2025-11-18T17:43:32.232Z,15.32,7.34,-8.67,10.27,55.27,50.02,-15.43,-17.73
,,0,2025-11-18T17:43:32.242Z,13.83,6.24,-7.2,10.03,59.3,55.97,-18.96,-4.92
,,0,2025-11-18T17:43:32.252Z,12.33,5.01,-6.04,9.51,61.04,56.57,-22.4,4.83
,,0,2025-11-18T17:43:32.262Z,10.77,3.75,-4.68,8.95,61.32,54.19,-24.86,14.34
,,0,2025-11-18T17:43:32.272Z,10.1,2.84,-4.05,8.81,60.52,49.29,-26.24,23.34
,,0,2025-11-18T17:43:32.282Z,9.04,1.96,-3.68,8.02,62.38,45.36,-30.06,30.5
,,0,2025-11-18T17:43:32.292Z,8.8,1.6,-3.59,7.87,64.26,43.06,-29.85,37.2
,,0,2025-11-18T17:43:32.302Z,8.78,1.32,-3.79,7.81,69.46,46.55,-29.6,42.21
,,0,2025-11-18T17:43:32.312Z,8.64,1.07,-3.67,7.75,76.69,56.15,-29.35,43.22
,,0,2025-11-18T17:43:32.322Z,8.07,0.87,-2.85,7.5,82.55,62.44,-27.53,46.45
,,0,2025-11-18T17:43:32.332Z,7.27,0.83,-1.81,7,81.93,60.87,-24.91,48.86
,,0,2025-11-18T17:43:32.342Z,7.36,1.06,-1.85,7.05,81.56,60.77,-20.21,50.5
,,0,2025-11-18T17:43:32.352Z,7.49,1.1,-2.41,7.01,81.56,60.73,-17.59,51.53
,,0,2025-11-18T17:43:32.362Z,7.54,1.19,-2.58,6.99,83.78,62.53,-17.47,52.96
,,0,2025-11-18T17:43:32.372Z,8.02,1.64,-2.91,7.29,83.52,61.34,-16.43,54.26
,,0,2025-11-18T17:43:32.382Z,8.31,1.8,-3.46,7.34,82.55,61.37,-16.11,52.82
,,0,2025-11-18T17:43:32.392Z,8.53,1.62,-4.57,7.01,86.15,68.26,-17.45,49.57
,,0,2025-11-18T17:43:32.402Z,9.24,2.2,-5.74,6.9,90.95,73.91,-20.57,48.85
,,0,2025-11-18T17:43:32.412Z,9.92,3.36,-5.95,7.19,93.78,76.64,-23.54,48.65
,,0,2025-11-18T17:43:32.422Z,10.85,4.43,-5.82,8.02,91.46,74.24,-24.26,47.58
,,0,2025-11-18T17:43:32.432Z,12.05,5.29,-6.33,8.78,88.3,69.22,-23.43,49.56
,,0,2025-11-18T17:43:32.442Z,12.89,5.96,-6.65,9.3,86.91,66.74,-21.41,51.38
,,0,2025-11-18T17:43:32.452Z,13.45,6.33,-7.15,9.47,87.8,68.3,-18.16,52.1
,,0,2025-11-18T17:43:32.462Z,13.54,6.44,-7.44,9.3,89.14,68.65,-15.41,54.73
,,0,2025-11-18T17:43:32.472Z,12.68,6.49,-6.56,8.7,86.26,62.96,-11.58,57.81
,,0,2025-11-18T17:43:32.482Z,12.25,6.3,-6.08,8.57,80.34,55.24,-6.18,58
,,0,2025-11-18T17:43:32.492Z,11.98,5.79,-6.18,8.47,77.7,52.07,-2.4,57.63
,,0,2025-11-18T17:43:32.502Z,11.95,5.4,-6.18,8.68,79.72,53.8,-0.37,58.82
,,0,2025-11-18T17:43:32.512Z,11.58,4.98,-5.65,8.8,82.27,57.82,0.15,58.53
,,0,2025-11-18T17:43:32.522Z,11.2,4.78,-4.85,8.89,82.85,57.84,0.46,59.31
,,0,2025-11-18T17:43:32.532Z,10.59,4.54,-4.23,8.58,82.69,56.73,1.38,60.15
,,0,2025-11-18T17:43:32.542Z,10.17,4.44,-3.94,8.26,82.1,54.5,1.17,61.4
,,0,2025-11-18T17:43:32.552Z,9.87,4,-3.73,8.22,80.09,50.89,-1.03,61.83
,,0,2025-11-18T17:43:32.562Z,9.65,3.82,-3.38,8.2,77.61,43.82,-3.15,63.97
,,0,2025-11-18T17:43:32.572Z,9.53,3.76,-3.48,8.04,75.36,40.98,-2.68,63.18
,,0,2025-11-18T17:43:32.582Z,8.58,3.15,-3.48,7.18,74.86,43.12,-6.44,60.85
,,0,2025-11-18T17:43:32.737Z,7.2,1.82,-5.36,4.44,119.6,-33.4,-71.97,89.49
,,0,2025-11-18T17:43:32.746Z,7.78,0.94,-7,3.27,118.24,-1.9,-86.29,80.82
,,0,2025-11-18T17:43:32.756Z,7.39,0.06,-6.86,2.75,130.1,13.91,-102.81,78.5
,,0,2025-11-18T17:43:32.766Z,7.47,0.93,-6.59,3.4,137.43,9.41,-113.53,76.87
,,0,2025-11-18T17:43:32.776Z,7.47,2.48,-5.83,3.95,147.1,-4.24,-125.26,77
,,0,2025-11-18T17:43:32.786Z,7.74,3.88,-5.37,4,158.8,-24.36,-134.98,80.02
,,0,2025-11-18T17:43:32.796Z,8.33,5.1,-5.12,4.15,177.75,-57.12,-141.73,90.82
,,0,2025-11-18T17:43:32.806Z,9.21,6.09,-5.42,4.29,196.65,-87.48,-144.34,100.92
,,0,2025-11-18T17:43:32.816Z,11.2,6.96,-7.5,4.54,200.98,-94.86,-145.18,101.57
,,0,2025-11-18T17:43:32.826Z,13.4,6.85,-10.89,3.78,190.47,-66.86,-152.31,92.79
,,0,2025-11-18T17:43:32.836Z,14.65,6.9,-12.43,3.52,184.34,-30.62,-161.53,83.36
,,0,2025-11-18T17:43:32.846Z,14.17,7.81,-11.05,4.21,190.87,-9.11,-172.27,81.66
,,0,2025-11-18T17:43:32.856Z,13.94,9.31,-9.13,4.94,197.24,-11.01,-175.52,89.31
,,0,2025-11-18T17:43:32.866Z,14.14,10.65,-7.68,5.23,200.95,-30.9,-172.28,98.72
,,0,2025-11-18T17:43:32.876Z,14.19,11.26,-6.62,5.54,201.01,-58.92,-159.69,106.93
,,0,2025-11-18T17:43:32.886Z,13.83,10.38,-7.52,5.2,198.67,-65.69,-151.4,110.6
,,0,2025-11-18T17:43:32.896Z,15.09,9.82,-10.22,5.19,188.44,-46.7,-146.53,108.89
,,0,2025-11-18T17:43:32.906Z,16.12,9.79,-11.81,4.96,181.05,-9.61,-150.3,100.49
,,0,2025-11-18T17:43:32.916Z,15.61,10.05,-11.18,4.22,183.25,18.03,-155.18,95.79
,,0,2025-11-18T17:43:32.926Z,14.68,10.54,-9.38,4.06,183.95,25.11,-151.79,100.83
,,0,2025-11-18T17:43:32.936Z,14.65,11.17,-8.6,3.98,177.52,21.94,-141.93,104.35
,,0,2025-11-18T17:43:32.946Z,14.67,11.53,-8.02,4.25,167.17,12.42,-133.05,100.44
,,0,2025-11-18T17:43:32.956Z,14.21,11.18,-7.7,4.22,162.52,7.03,-123.08,105.9
,,0,2025-11-18T17:43:32.966Z,13.89,10.44,-8.15,4.17,161.36,17.39,-116.67,110.1
,,0,2025-11-18T17:43:32.976Z,14.3,10.1,-9.31,3.98,160.73,32.81,-113.95,108.51
,,0,2025-11-18T17:43:32.986Z,14.27,9.88,-9.71,3.45,162.5,60.5,-111.19,101.89
,,0,2025-11-18T17:43:32.996Z,13.85,10.03,-8.9,3.48,165.12,80.39,-107.02,96.7
,,0,2025-11-18T17:43:33.006Z,12.64,9.81,-7.08,3.66,166,89.84,-101.97,95.33
,,0,2025-11-18T17:43:33.016Z,12.11,9.63,-6.28,3.82,163.51,90.98,-96.72,95.4
,,0,2025-11-18T17:43:33.026Z,11.95,9.44,-6.29,3.74,160.07,89.25,-93.43,94.49
,,0,2025-11-18T17:43:33.036Z,11.67,9.16,-6.22,3.69,157.59,86.15,-90.92,95.64
,,0,2025-11-18T17:43:33.046Z,11.35,9.06,-5.86,3.52,154.24,78.66,-89.37,98.06
,,0,2025-11-18T17:43:33.056Z,11.62,9.3,-5.87,3.75,150.94,72.02,-86.57,100.51
,,0,2025-11-18T17:43:33.066Z,11.67,9.34,-6.15,3.35,148.15,71.66,-84.39,98.44
,,0,2025-11-18T17:43:33.076Z,12.63,9.5,-7.64,3.3,148.33,86.94,-77.6,91.78
,,0,2025-11-18T17:43:33.086Z,12.87,9.37,-8.29,3,155.22,106.51,-77.68,81.95
,,0,2025-11-18T17:43:33.096Z,12.31,9.77,-6.83,3.09,158.15,116.23,-74.68,76.97
,,0,2025-11-18T17:43:33.106Z,11.67,10.02,-5.03,3.23,153.55,115.21,-68.11,75.27
,,0,2025-11-18T17:43:33.116Z,11.77,10.4,-4.39,3.33,141.4,104.59,-59.61,74.18
,,0,2025-11-18T17:43:33.126Z,11.82,10.33,-4.54,3.51,129.91,94.56,-50.48,73.38
,,0,2025-11-18T17:43:33.136Z,11.67,10.05,-4.63,3.72,120.83,85.25,-44.21,73.34
,,0,2025-11-18T17:43:33.146Z,11.52,9.84,-4.68,3.75,113.59,77.03,-40.1,73.22
,,0,2025-11-18T17:43:33.156Z,11.1,9.65,-4.51,3.13,104.56,64.15,-36.66,73.98
,,0,2025-11-18T17:43:33.166Z,11,9.79,-4.27,2.62,94.4,54.15,-30.24,71.17
,,0,2025-11-18T17:43:33.176Z,11.39,9.9,-5.04,2.53,84.71,52.46,-20.41,63.3
,,0,2025-11-18T17:43:33.186Z,11.69,9.66,-6.14,2.38,84.88,64.4,-13.99,53.49
,,0,2025-11-18T17:43:33.196Z,11.84,9.76,-5.99,3,86.16,71.87,-8.86,46.69
,,0,2025-11-18T17:43:33.206Z,11.23,9.75,-4.44,3.39,84.99,72.95,-3.9,43.42
,,0,2025-11-18T17:43:33.216Z,10.79,9.63,-3.33,3.54,78.76,67.02,2.27,41.31
,,0,2025-11-18T17:43:33.226Z,10.52,9.45,-2.97,3.57,68.63,55.47,9.01,39.39
,,0,2025-11-18T17:43:33.236Z,10.33,9.19,-2.97,3.66,58.33,41.73,15.44,37.72
,,0,2025-11-18T17:43:33.246Z,9.94,8.83,-2.89,3.56,49.62,27.12,19.75,36.56
,,0,2025-11-18T17:43:33.256Z,9.4,8.44,-2.44,3.34,43.76,12.42,22.91,35.15
,,0,2025-11-18T17:43:33.266Z,9.05,8.19,-2.34,3.06,39.46,3.75,25.05,30.25
,,0,2025-11-18T17:43:33.276Z,9.48,8.29,-3.09,3.41,36.74,2.11,27.95,23.75
,,0,2025-11-18T17:43:33.286Z,9.73,8.2,-4.07,3.29,33.53,5.24,28.72,16.5
,,0,2025-11-18T17:43:33.296Z,10.05,8.46,-4.34,3.25,32.34,6.89,30.76,7.23
,,0,2025-11-18T17:43:33.306Z,10.16,8.77,-3.95,3.29,35.1,8.49,33.91,-3.18
,,0,2025-11-18T17:43:33.316Z,10.17,9.05,-3.23,3.33,40.51,7.85,37.44,-13.31
,,0,2025-11-18T17:43:33.326Z,10.58,9.56,-2.55,3.76,47.93,3.87,42.29,-22.22
,,0,2025-11-18T17:43:33.336Z,10.89,9.9,-1.5,4.27,56.26,-10.6,46.62,-29.66
,,0,2025-11-18T17:43:33.346Z,11.92,10.76,-0.31,5.12,69.4,-30.92,50.95,-35.56
,,0,2025-11-18T17:43:33.356Z,12.98,11.69,0.88,5.59,85.43,-50.06,54.15,-43.14
,,0,2025-11-18T17:43:33.366Z,14.11,12.86,1.5,5.62,104.11,-66.85,59.4,-53.3
,,0,2025-11-18T17:43:33.376Z,14.59,13.78,1.63,4.51,131.47,-94.9,68.85,-59.47
,,0,2025-11-18T17:43:33.386Z,14.44,14.09,1.92,2.51,168.96,-132.69,80.4,-66.91
,,0,2025-11-18T17:43:33.396Z,15.24,15.13,1.3,1.27,221.68,-184.46,98.7,-73.31
,,0,2025-11-18T17:43:33.406Z,17.64,17.23,-3.02,2.31,254.66,-204.79,119.36,-93.11
,,0,2025-11-18T17:43:33.416Z,20.55,19.25,-6.47,3.13,266.73,-195.42,126.47,-130.24
,,0,2025-11-18T17:43:33.426Z,20.53,19.62,-5.58,2.3,276.74,-186.02,131.5,-157.13
,,0,2025-11-18T17:43:33.436Z,19.78,19.62,-1.62,1.91,303.08,-199.74,156.65,-165.6
,,0,2025-11-18T17:43:33.446Z,19.68,19.62,1.47,-0.55,355.69,-235.3,196.11,-180.81
,,0,2025-11-18T17:43:33.456Z,20.01,19.62,3.41,-1.99,398.17,-250.14,235.16,-201.66
,,0,2025-11-18T17:43:33.466Z,20.25,19.62,2.7,-4.22,413.94,-250.14,250.13,-214.96
,,0,2025-11-18T17:43:33.476Z,20.96,19.62,2.19,-7.04,421.85,-250.14,250.13,-229.83
,,0,2025-11-18T17:43:33.486Z,22.46,19.62,2.42,-10.66,430.74,-250.14,250.13,-245.76
,,0,2025-11-18T17:43:33.496Z,22.89,19.62,1.03,-11.74,433.25,-250.14,250.13,-250.14
,,0,2025-11-18T17:43:33.506Z,27.8,19.62,-3.05,-19.45,433.25,-250.14,250.13,-250.14
,,0,2025-11-18T17:43:33.516Z,29.05,19.62,-8.61,-19.62,431.34,-250.14,250.13,-246.82
,,0,2025-11-18T17:43:33.526Z,31.18,19.62,-14.23,-19.62,419.73,-250.14,250.13,-225.92
,,0,2025-11-18T17:43:33.536Z,30.76,19.62,-13.28,-19.62,398.28,-250.14,250.13,-183.02
,,0,2025-11-18T17:43:33.546Z,28.32,19.62,-5.65,-19.62,378.63,-250.14,250.13,-135
,,0,2025-11-18T17:43:33.556Z,27.97,19.62,-3.5,-19.62,358.31,-250.14,250.13,-57
,,0,2025-11-18T17:43:33.566Z,29.24,18.73,-10.92,-19.62,359.29,-250.14,250.13,62.89
,,0,2025-11-18T17:43:33.576Z,31.63,15.18,-19.62,-19.62,406.46,-250.14,250.13,200.18
,,0,2025-11-18T17:43:33.586Z,28.61,6.98,-19.62,-19.62,433.24,-250.14,250.13,250.13
,,0,2025-11-18T17:43:33.596Z,28.48,-6.43,-19.62,-19.62,433.24,-250.14,250.13,250.13
,,0,2025-11-18T17:43:33.606Z,28.31,-5.64,-19.62,-19.62,433.24,-250.14,250.13,250.13
,,0,2025-11-18T17:43:33.616Z,26.95,2.6,-19.62,-18.3,357,-48.16,250.13,250.13
,,0,2025-11-18T17:43:33.626Z,26.33,7.74,-19.62,-15.77,355.18,31.96,250.13,250.13
,,0,2025-11-18T17:43:33.636Z,19.28,9.75,-6.2,-15.44,356.7,45.85,250.13,250.13
,,0,2025-11-18T17:43:33.646Z,14.29,7.2,-2.31,-12.12,356.87,47.21,250.13,250.13
,,0,2025-11-18T17:43:33.656Z,13.74,4.67,-11.42,-6.04,356.96,47.82,250.13,250.13
,,0,2025-11-18T17:43:33.666Z,21.2,7.74,-19.62,2.17,363.49,83.66,250.13,250.13
,,0,2025-11-18T17:43:33.676Z,25.82,16.69,-19.62,1.73,390.24,164.8,250.13,250.13
,,0,2025-11-18T17:43:33.686Z,27.76,19.62,-19.62,-0.97,428.85,242.44,250.13,250.13
,,0,2025-11-18T17:43:33.696Z,28.7,19.62,-19.62,-7.32,433.24,250.13,250.13,250.13
,,0,2025-11-18T17:43:33.706Z,30.35,19.62,-19.62,-12.29,430.3,245.01,250.13,250.13
,,0,2025-11-18T17:43:33.716Z,31.71,19.62,-18.37,-16.83,424.77,235.15,250.13,250.13
,,0,2025-11-18T17:43:33.726Z,31.79,19.62,-15.52,-19.62,423.99,233.76,250.13,250.13
,,0,2025-11-18T17:43:33.736Z,32.39,19.62,-16.71,-19.62,401.89,250.13,190.76,250.13
,,0,2025-11-18T17:43:33.746Z,29.05,19.62,-8.6,-19.62,366.81,250.13,97.07,250.13
,,0,2025-11-18T17:43:33.756Z,25.24,15.74,2.04,-19.62,354.96,249.33,35.57,250.13
,,0,2025-11-18T17:43:33.766Z,25.37,13.09,9.34,-19.62,327.3,205.38,-48.76,250.13
,,0,2025-11-18T17:43:33.776Z,26.82,11.24,14.43,-19.62,317.09,166.25,-101.69,250.13
,,0,2025-11-18T17:43:33.786Z,27.79,9.64,17.16,-19.62,297.79,130.64,-131.32,233.17
,,0,2025-11-18T17:43:33.796Z,28.6,8.79,18.86,-19.62,235.4,96.14,-146.49,157.21
,,0,2025-11-18T17:43:33.806Z,26.08,7.52,19.07,-16.12,187.3,62.47,-151.61,90.52
,,0,2025-11-18T17:43:33.816Z,22.26,8.27,17.64,-10.76,173.48,-7.18,-170.46,31.44
,,0,2025-11-18T17:43:33.826Z,25.25,18.67,15.89,-6.03,165.1,18.76,-92.2,-135.67
,,0,2025-11-18T17:43:33.836Z,19.9,1.34,19.62,-3.07,101.59,-9.37,-96.4,-30.68
,,0,2025-11-18T17:43:33.846Z,12.93,3.17,11.71,-4.46,165.19,-53.8,-87.56,-129.33
,,0,2025-11-18T17:43:33.856Z,22.6,19.62,9.71,5.61,248.95,-30.07,-42.8,-243.39
,,0,2025-11-18T17:43:33.866Z,5.86,-1.48,5.54,-1.19,234.77,-29.5,-35.82,-230.14
,,0,2025-11-18T17:43:33.876Z,10.72,-6.35,8.54,-1.3,213.67,-69.08,-59.79,-193.15
,,0,2025-11-18T17:43:33.886Z,5.43,-5.09,0.37,-1.88,208.66,-86.66,-67.31,-177.47
,,0,2025-11-18T17:43:33.896Z,6.29,-4.95,-3.01,-2.45,217.01,-80.82,-61.17,-191.88
,,0,2025-11-18T17:43:33.906Z,7.78,-6.49,-2.62,-3.41,237.66,-98.13,-46.07,-211.5
,,0,2025-11-18T17:43:33.916Z,9.18,-6.47,-5.97,-2.59,226.11,-90.66,-36.2,-203.95
,,0,2025-11-18T17:43:33.926Z,10.37,-6.22,-7.81,-2.79,237.42,-92.43,-50.39,-212.8
,,0,2025-11-18T17:43:33.936Z,9.24,-5.98,-6.72,-2.11,247.75,-96.64,-61.02,-219.81
,,0,2025-11-18T17:43:33.946Z,10.44,-5.7,-8.72,-0.73,243.7,-91.63,-67.79,-215.4
,,0,2025-11-18T17:43:33.956Z,11.75,-6.7,-9.65,-0.18,228.79,-79.78,-90.99,-194.17
,,0,2025-11-18T17:43:33.966Z,9.44,-6.76,-6.57,-0.49,207.96,-87.48,-112.51,-151.44
,,0,2025-11-18T17:43:33.976Z,8.69,-3.86,-7.56,-1.83,227.47,-104.61,-126.39,-157.56
,,0,2025-11-18T17:43:33.986Z,11.59,-4.76,-10.27,-2.48,242.61,-123.08,-134.82,-159.8
,,0,2025-11-18T17:43:33.996Z,10.93,-3.98,-10.02,-1.79,236.63,-119.63,-156.79,-130.75
,,0,2025-11-18T17:43:34.006Z,10.94,-1.64,-10.54,-2.42,264.93,-140.44,-166.27,-151.05
,,0,2025-11-18T17:43:34.016Z,12.08,-1.7,-11.78,-2.08,278.07,-152.11,-172.51,-156.29
,,0,2025-11-18T17:43:34.026Z,12.83,-1.18,-12.74,-0.92,281.81,-157.26,-180.56,-148.62
,,0,2025-11-18T17:43:34.036Z,11.4,-0.19,-11.4,-0.02,288.61,-154.82,-192.15,-149.68
,,0,2025-11-18T17:43:34.046Z,9.89,0.55,-9.84,0.81,289.36,-149.18,-199.05,-147.83
,,0,2025-11-18T17:43:34.056Z,10.4,0.97,-10.22,1.71,288.56,-152.99,-202.06,-137.95
,,0,2025-11-18T17:43:34.066Z,10.62,1.5,-10.31,2.04,292.76,-161.99,-205.13,-131.87
,,0,2025-11-18T17:43:34.076Z,11.46,1.75,-11.19,1.7,297.51,-175.73,-203.43,-127.48
,,0,2025-11-18T17:43:34.086Z,12.96,2.15,-12.61,2.05,297.61,-175.12,-201.39,-131.7
,,0,2025-11-18T17:43:34.096Z,14.38,2.08,-14.07,2.15,292.31,-157.15,-198.76,-145.76
,,0,2025-11-18T17:43:34.106Z,14.36,2.12,-14.01,2.37,276.96,-126,-193.84,-152.51
,,0,2025-11-18T17:43:34.116Z,13.8,2.68,-13.27,2.66,267.55,-101.13,-186.58,-162.92
,,0,2025-11-18T17:43:34.126Z,13.37,2.53,-12.73,3.19,260.88,-83.68,-180.12,-169.15
,,0,2025-11-18T17:43:34.136Z,14.05,2.85,-13.2,3.9,257.64,-79.82,-175.72,-170.68
,,0,2025-11-18T17:43:34.146Z,14.35,2.88,-13.45,4.09,254.95,-83.84,-168.18,-172.3
,,0,2025-11-18T17:43:34.156Z,13.79,2.66,-12.93,4.01,256.51,-93.98,-158.49,-178.45
,,0,2025-11-18T17:43:34.166Z,14.03,2.03,-13.35,3.83,254.63,-100.07,-149.88,-179.89
,,0,2025-11-18T17:43:34.176Z,13.66,1.58,-13.04,3.78,250.77,-105.77,-142.53,-177.15
,,0,2025-11-18T17:43:34.186Z,12.88,1.27,-12.4,3.25,246,-113.37,-134.25,-172.15
,,0,2025-11-18T17:43:34.196Z,12.44,0.8,-12.15,2.51,240.99,-114.47,-127.09,-169.76
,,0,2025-11-18T17:43:34.206Z,13.76,0.8,-13.54,2.35,236.33,-108.4,-120.99,-171.65
,,0,2025-11-18T17:43:34.216Z,15.18,1.3,-14.94,2.4,230.01,-97.27,-117.09,-172.43
,,0,2025-11-18T17:43:34.226Z,15.46,2.64,-15.05,2.35,230.05,-90.05,-110.45,-180.6
,,0,2025-11-18T17:43:34.236Z,14.91,1.95,-14.54,2.68,222.79,-89.07,-112.4,-170.49
,,0,2025-11-18T17:43:34.246Z,14.51,1.34,-14.19,2.75,214.76,-89.26,-111.82,-160.16
,,0,2025-11-18T17:43:34.256Z,14.95,0.79,-14.69,2.69,207.84,-85.53,-112.69,-152.25
,,0,2025-11-18T17:43:34.266Z,15.06,0.45,-14.79,2.83,200.89,-79.64,-114.9,-144.27
,,0,2025-11-18T17:43:34.276Z,14.37,0.17,-13.95,3.42,198.19,-74.28,-120.49,-138.72
,,0,2025-11-18T17:43:34.286Z,13.97,0.5,-13.29,4.28,195.25,-66.66,-123.92,-135.36
,,0,2025-11-18T17:43:34.296Z,13.59,0.73,-12.59,5.08,185.97,-55.27,-122.13,-128.89
,,0,2025-11-18T17:43:34.306Z,13.01,0.59,-12.02,4.93,176.22,-45.32,-119.33,-121.49
,,0,2025-11-18T17:43:34.316Z,12.38,0.59,-11.67,4.08,167.61,-38.62,-119.4,-111.11
,,0,2025-11-18T17:43:34.326Z,11.68,0.79,-11.16,3.35,162.42,-32.27,-119.8,-104.82
,,0,2025-11-18T17:43:34.336Z,10.79,0.63,-10.48,2.51,158.57,-36.11,-118.28,-99.24
,,0,2025-11-18T17:43:34.346Z,10.81,0.26,-10.6,2.1,159.26,-44.17,-122.1,-92.21
,,0,2025-11-18T17:43:34.356Z,11.77,0.94,-11.42,2.69,158.08,-47.11,-121.83,-89.03
,,0,2025-11-18T17:43:34.366Z,12.74,1.64,-12.14,3.51,157.09,-37.66,-119.08,-95.29
,,0,2025-11-18T17:43:34.376Z,13.23,2.35,-12.19,4.56,153.97,-21.11,-113.65,-101.72
,,0,2025-11-18T17:43:34.386Z,13.45,2.57,-12.02,5.45,145.95,-1.76,-107.75,-98.43
,,0,2025-11-18T17:43:34.396Z,12.58,2.47,-10.93,5.71,134.93,11.77,-102.23,-87.27
,,0,2025-11-18T17:43:34.406Z,12.13,2.77,-9.99,6.3,116.3,11.08,-93.9,-67.72
,,0,2025-11-18T17:43:34.416Z,11.19,2.56,-9.2,5.84,104.67,1.25,-89.38,-54.46
,,0,2025-11-18T17:43:34.426Z,10.85,2.25,-9.49,4.75,96.4,-17.1,-82.53,-46.79
,,0,2025-11-18T17:43:34.436Z,11.42,2.39,-10.3,4.31,88.22,-26.01,-75.6,-37.31
,,0,2025-11-18T17:43:34.446Z,11.47,2.02,-10.57,3.96,77.44,-24.74,-68.27,-26.92
,,0,2025-11-18T17:43:34.456Z,11.43,2.1,-10.29,4.51,69.04,-10.35,-64.8,-21.44
,,0,2025-11-18T17:43:34.466Z,12.23,2.5,-10.95,4.85,59.72,8.3,-57.87,-12.18
,,0,2025-11-18T17:43:34.476Z,13.12,2.56,-11.96,4.74,62.49,32.05,-53.57,-2.8
,,0,2025-11-18T17:43:34.486Z,13.49,2.59,-12.54,4.26,70.7,50.53,-49.36,2.96
,,0,2025-11-18T17:43:34.496Z,13.24,2.56,-12.43,3.78,80.75,66.05,-46.38,2.77
,,0,2025-11-18T17:43:34.506Z,13.1,2.95,-12.25,3.61,87.45,77.41,-40.68,0.31
,,0,2025-11-18T17:43:34.516Z,13.46,3.16,-12.68,3.22,94.4,87.73,-34.85,0.6
,,0,2025-11-18T17:43:34.526Z,14.55,3.38,-13.87,2.83,100.84,95.47,-32.02,5.41
,,0,2025-11-18T17:43:34.536Z,15.25,3.94,-14.59,2.04,109.36,104.88,-29.29,10.17
,,0,2025-11-18T17:43:34.546Z,15.01,4.26,-14.33,1.3,118.54,114.58,-27.92,11.98
,,0,2025-11-18T17:43:34.556Z,13.89,4.54,-13.12,0.38,119.73,115.31,-29.21,13.62
,,0,2025-11-18T17:43:34.566Z,12.87,4.77,-11.92,-0.92,109.09,103.08,-30.97,17.76
,,0,2025-11-18T17:43:34.576Z,13.34,5.86,-11.94,-1.04,96.72,91.13,-30.77,10.18
,,0,2025-11-18T17:43:34.586Z,14.71,7.1,-12.84,-1.05,87.78,81.73,-32.03,-1.06
,,0,2025-11-18T17:43:34.596Z,15.78,8.02,-13.53,-1.31,78.84,72.82,-29.16,-7.85
,,0,2025-11-18T17:43:34.606Z,16.47,8.32,-14.11,-1.7,66.85,60.1,-24.92,-15.37
,,0,2025-11-18T17:43:34.616Z,16.84,8.56,-14.37,-1.93,59.57,47.98,-21.4,-28.08
,,0,2025-11-18T17:43:34.626Z,17.1,8.93,-14.48,-1.75,58.82,37.93,-17.15,-41.55
,,0,2025-11-18T17:43:34.636Z,16.53,9.05,-13.73,-1.72,63.02,30.98,-11.42,-53.67
,,0,2025-11-18T17:43:34.646Z,15.4,8.5,-12.74,-1.55,72.95,29.31,-7.37,-66.4
,,0,2025-11-18T17:43:34.656Z,14.43,7.42,-12.28,-1.54,85.57,34.31,-7.24,-78.05
,,0,2025-11-18T17:43:34.666Z,13.52,6.63,-11.73,-1.13,96.24,41.95,-7.5,-86.29
,,0,2025-11-18T17:43:34.676Z,11.84,5.92,-10.22,-0.9,105.15,49.31,-7.55,-92.56
,,0,2025-11-18T17:43:34.686Z,10.37,5.33,-8.88,-0.46,111.59,52.32,-9.14,-98.14
,,0,2025-11-18T17:43:34.696Z,9.12,4.7,-7.82,0.06,114.41,51.39,-8.94,-101.83
,,0,2025-11-18T17:43:34.706Z,8.05,3.76,-7.09,0.59,110.72,50.89,-7.7,-98.03
,,0,2025-11-18T17:43:34.716Z,6.79,2.89,-6.04,1.14,98.37,43.73,-5.49,-87.94
,,0,2025-11-18T17:43:34.726Z,5.43,2.09,-4.66,1.85,79.07,29.72,-1.6,-73.25
,,0,2025-11-18T17:43:34.736Z,4.54,1.29,-3.55,2.51,63.3,17.94,-1.02,-60.69
,,0,2025-11-18T17:43:35.049Z,13.86,6.23,-12.09,2.67,50.02,-15.01,-8.09,-47.02
,,0,2025-11-18T17:43:35.058Z,12.05,5.37,-10.49,2.51,45.37,-19.79,-14.24,-38.26
,,0,2025-11-18T17:43:35.068Z,11.24,4.85,-9.72,2.89,44.66,-21.86,-18.04,-34.51
,,0,2025-11-18T17:43:35.078Z,11.47,4.19,-10.02,3.69,42.3,-16.4,-20.72,-33.03
,,0,2025-11-18T17:43:35.088Z,11.31,3.56,-9.79,4.39,40.16,-8.82,-23.56,-31.3
,,0,2025-11-18T17:43:35.098Z,10.3,2.87,-8.57,4.95,40.21,-4.47,-26.93,-29.52
,,0,2025-11-18T17:43:35.108Z,9.5,2.04,-7.67,5.22,38.77,-4.16,-28.81,-25.61
,,0,2025-11-18T17:43:35.118Z,9.46,1.44,-7.56,5.51,37.23,-4.25,-29.94,-21.71
,,0,2025-11-18T17:43:35.128Z,9.72,0.98,-7.87,5.62,35.47,1.55,-30.16,-18.6
,,0,2025-11-18T17:43:35.138Z,9.35,0.6,-7.63,5.37,36.9,12.34,-30.27,-17.1
,,0,2025-11-18T17:43:35.148Z,8.41,-0.02,-6.83,4.91,41.77,22.86,-32.62,-12.56
,,0,2025-11-18T17:43:35.158Z,7.41,-0.72,-6.01,4.27,44.61,26.48,-35.3,-6.54
,,0,2025-11-18T17:43:35.168Z,7.22,-1.35,-5.98,3.82,44.72,23.65,-37.85,-2.75
,,0,2025-11-18T17:43:35.178Z,7.67,-1.63,-6.67,3.43,45.75,19.21,-41.51,-0.76
,,0,2025-11-18T17:43:35.188Z,8.67,-1.51,-7.87,3.29,46.67,20.78,-41.73,-2.09
,,0,2025-11-18T17:43:35.198Z,9.32,-1.45,-8.7,3.03,52.82,27.11,-44.88,-6.37
,,0,2025-11-18T17:43:35.208Z,9.14,-1.54,-8.58,2.75,58.29,32.43,-48.01,-6.43
,,0,2025-11-18T17:43:35.218Z,8.97,-1.81,-8.44,2.45,62.74,32.79,-53.49,-0.14
,,0,2025-11-18T17:43:35.228Z,8.97,-1.64,-8.47,2.47,64.05,29.01,-56.94,4.41
,,0,2025-11-18T17:43:35.238Z,9.42,-1.33,-8.96,2.59,64.72,23.01,-60.36,3.98
,,0,2025-11-18T17:43:35.248Z,10.38,-0.78,-9.94,2.9,66.31,20.25,-62.98,4.57
,,0,2025-11-18T17:43:35.258Z,11.86,-0.27,-11.45,3.08,70.29,27.65,-64.11,8.08
,,0,2025-11-18T17:43:35.268Z,12.56,0.22,-12.19,3.03,77.74,36.95,-67.56,10.71
,,0,2025-11-18T17:43:35.278Z,12.1,0.67,-11.78,2.69,85.49,44.35,-71.8,13.61
,,0,2025-11-18T17:43:35.288Z,11.54,0.84,-11.34,1.98,90.61,44.77,-76.56,18.55
,,0,2025-11-18T17:43:35.298Z,11.66,1.08,-11.53,1.35,94.79,40.79,-82.96,20.92
,,0,2025-11-18T17:43:35.308Z,12.51,1.71,-12.35,0.94,97.69,35.14,-88.76,20.75
,,0,2025-11-18T17:43:35.318Z,13.2,2.11,-13.02,0.41,102.45,30.47,-95.84,19.57
,,0,2025-11-18T17:43:35.328Z,13.41,2.27,-13.22,-0.11,107.74,25.03,-103.17,18.4
,,0,2025-11-18T17:43:35.338Z,13.57,2.73,-13.29,-0.32,113.86,17.38,-110.83,19.46
,,0,2025-11-18T17:43:35.348Z,13.9,3.19,-13.52,-0.61,119.41,7.56,-117.53,19.69
,,0,2025-11-18T17:43:35.358Z,13.9,3.56,-13.41,-0.82,123.39,0.18,-122.4,15.56
,,0,2025-11-18T17:43:35.368Z,13.77,3.59,-13.24,-1.16,127.65,-2.24,-127.18,10.79
,,0,2025-11-18T17:43:35.378Z,13.49,3.17,-13.04,-1.39,132.17,1.52,-131.82,9.37
,,0,2025-11-18T17:43:35.388Z,13.02,2.82,-12.66,-1.21,137.66,12.04,-137.01,5.85
,,0,2025-11-18T17:43:35.398Z,12.32,2.68,-12,-0.91,144.29,22.44,-142.49,3.52
,,0,2025-11-18T17:43:35.408Z,11.35,2.63,-11.01,-0.81,149.91,29.84,-146.84,4.52
,,0,2025-11-18T17:43:35.418Z,10.53,2.53,-10.21,-0.54,153.88,33.68,-150,6.63
,,0,2025-11-18T17:43:35.428Z,10.13,2.42,-9.83,-0.44,156.91,35.14,-152.79,6.28
,,0,2025-11-18T17:43:35.438Z,9.74,2.05,-9.46,-1.07,158.85,30.91,-155.69,6.23
,,0,2025-11-18T17:43:35.448Z,9.66,1.82,-9.42,-1.14,159,25.74,-156.87,3.21
,,0,2025-11-18T17:43:35.458Z,9.4,1.46,-9.19,-1.3,163.52,25.81,-161.37,-5.48
,,0,2025-11-18T17:43:35.468Z,8.41,1.6,-8.14,-1.37,165.78,31.04,-162.31,-13.25
,,0,2025-11-18T17:43:35.478Z,7.94,1.79,-7.67,-1.03,165.2,44.5,-158.02,-18.49
,,0,2025-11-18T17:43:35.488Z,7.57,1.68,-7.32,-0.96,165.59,54.25,-155.42,-17.96
,,0,2025-11-18T17:43:35.498Z,6.66,1.73,-6.36,-0.93,164.73,58.23,-153.26,-16.05
,,0,2025-11-18T17:43:35.508Z,5.98,1.7,-5.71,-0.59,160.9,59.05,-148.99,-14.27
,,0,2025-11-18T17:43:35.518Z,5.63,1.31,-5.42,-0.75,161.91,62.06,-149.01,-12.6
,,0,2025-11-18T17:43:35.528Z,5.47,1.11,-5.3,-0.73,163.87,67.08,-149.12,-10.83
,,0,2025-11-18T17:43:35.538Z,5.99,1.08,-5.83,-0.84,164.09,71.17,-147.42,-11.28
,,0,2025-11-18T17:43:35.548Z,5.71,1.04,-5.48,-1.24,164.21,75.13,-145.46,-12.71
,,0,2025-11-18T17:43:35.558Z,4.67,1.38,-4.28,-1.25,161.56,73.95,-143.22,-10.94
,,0,2025-11-18T17:43:35.568Z,4.19,1.74,-3.64,-1.16,158.33,69.03,-142,-11.79
,,0,2025-11-18T17:43:35.578Z,4.74,1.94,-4.11,-1.35,155.23,64.34,-140.56,-14.19
,,0,2025-11-18T17:43:35.588Z,5.46,2.07,-4.8,-1.59,152.86,64.37,-137.63,-16.78
,,0,2025-11-18T17:43:35.598Z,5.92,2.14,-5.25,-1.71,154.15,68.2,-136.79,-20.03
,,0,2025-11-18T17:43:35.608Z,6.31,2.14,-5.52,-2.19,156.52,70.5,-138.21,-20.66
,,0,2025-11-18T17:43:35.618Z,7.03,2.52,-5.81,-3.07,159.49,69.37,-142.14,-20.55
,,0,2025-11-18T17:43:35.628Z,8.27,3.79,-6.4,-3.61,164.88,70.34,-146.63,-27.15
,,0,2025-11-18T17:43:35.638Z,9.92,4.84,-7.46,-4.4,173.94,74.65,-153.43,-33.8
,,0,2025-11-18T17:43:35.648Z,12.28,6.18,-9.52,-4.7,184.74,81.89,-160.84,-39.44
,,0,2025-11-18T17:43:35.658Z,14.33,7.84,-11.06,-4.65,195.49,91.46,-166.79,-45.12
,,0,2025-11-18T17:43:35.668Z,15.53,9.05,-11.67,-4.8,202.7,99.04,-170.87,-45.64
,,0,2025-11-18T17:43:35.678Z,15.36,9.83,-10.5,-5.39,201.18,92.46,-174.47,-38.53
,,0,2025-11-18T17:43:35.688Z,15.08,10.57,-9.37,-5.27,195.66,76.94,-177.42,-29.73
,,0,2025-11-18T17:43:35.698Z,15.71,11.06,-10.23,-4.46,194.44,68.08,-180.34,-25.44
,,0,2025-11-18T17:43:35.708Z,16.86,11.24,-11.8,-4.33,197.11,70.48,-182.92,-20.6
,,0,2025-11-18T17:43:35.718Z,17.52,11.52,-12.35,-4.68,198.91,77.85,-182.69,-11.29
,,0,2025-11-18T17:43:35.728Z,17.32,11.62,-11.77,-5.13,199.86,84.82,-180.92,-4.09
,,0,2025-11-18T17:43:35.738Z,17.33,11.8,-11.81,-4.64,201.37,92.49,-178.87,-1.64
,,0,2025-11-18T17:43:35.748Z,17.58,12.04,-12.2,-3.89,201.62,98.82,-175.73,1.1
,,0,2025-11-18T17:43:35.758Z,17.06,12,-11.62,-3.48,198.63,104.15,-168.77,11.05
,,0,2025-11-18T17:43:35.768Z,16.01,11.53,-10.78,-2.66,197.22,110.17,-162.65,17.4
,,0,2025-11-18T17:43:35.778Z,15.12,10.96,-10.27,-1.76,197.32,114.95,-159.01,20.94
,,0,2025-11-18T17:43:35.788Z,14.67,10.57,-10.11,-1.14,196.53,116.38,-155.87,27.97
,,0,2025-11-18T17:43:35.798Z,14.4,10.36,-9.98,-0.74,194.13,116.34,-151.2,35.92
,,0,2025-11-18T17:43:35.808Z,14.12,10.18,-9.78,-0.39,190.05,116.34,-144.81,40.21
,,0,2025-11-18T17:43:35.818Z,13.57,9.89,-9.29,-0.26,186.65,118.69,-137.35,43.41
,,0,2025-11-18T17:43:35.828Z,13.05,9.71,-8.72,0.15,186.08,123.27,-131.27,46.88
,,0,2025-11-18T17:43:35.838Z,12.56,9.38,-8.33,0.51,186.49,128.97,-124.79,50.72
,,0,2025-11-18T17:43:35.848Z,12.06,9.18,-7.81,0.63,184.78,131.22,-117.85,55.12
,,0,2025-11-18T17:43:35.858Z,10.94,8.65,-6.7,-0.18,179.44,126.89,-111.38,60.76
,,0,2025-11-18T17:43:35.868Z,10.54,8.4,-6.34,-0.45,175.25,122.85,-107.02,64.56
,,0,2025-11-18T17:43:35.878Z,11.37,8.64,-7.39,0.03,170.64,120.73,-100.61,66.47
,,0,2025-11-18T17:43:35.888Z,12.12,8.96,-8.14,0.44,172.43,129.4,-95.88,61.6
,,0,2025-11-18T17:43:35.898Z,12.26,9.41,-7.8,0.94,176.2,140.7,-89.8,56.45
,,0,2025-11-18T17:43:35.908Z,11.83,9.5,-6.9,1.39,180,150.02,-81.25,57.4
,,0,2025-11-18T17:43:35.918Z,11.06,9.27,-5.9,1.27,176.56,148.05,-74.65,60.68
,,0,2025-11-18T17:43:35.928Z,10.46,9.25,-4.77,1.07,164.33,136.07,-67.88,62.3
,,0,2025-11-18T17:43:35.938Z,10.52,9.32,-4.73,1.2,152.65,126.34,-60.6,60.54
,,0,2025-11-18T17:43:35.948Z,10.86,9.37,-5.29,1.42,143.63,120.36,-54.08,56.73
,,0,2025-11-18T17:43:35.958Z,11.01,9.27,-5.77,1.38,140.91,120.62,-48.61,54.26
,,0,2025-11-18T17:43:35.968Z,10.84,9.18,-5.63,1.19,139.12,121.09,-44.44,52.11
,,0,2025-11-18T17:43:35.978Z,10.9,9.32,-5.5,1.27,136.47,121.34,-39.93,48.01
,,0,2025-11-18T17:43:35.988Z,11.05,9.44,-5.55,1.45,132.36,120.57,-34.33,42.47
,,0,2025-11-18T17:43:35.998Z,11.05,9.61,-5.16,1.75,127.44,118.24,-27.47,38.79
,,0,2025-11-18T17:43:36.008Z,10.71,9.52,-4.53,1.9,121.53,114.16,-20.79,36.12
,,0,2025-11-18T17:43:36.018Z,10.33,9.45,-3.5,2.28,109,102.6,-13.98,34.04
,,0,2025-11-18T17:43:36.028Z,9.76,9.23,-2.16,2.35,92.52,87.43,-6.96,29.47
,,0,2025-11-18T17:43:36.038Z,9.6,9.17,-1.62,2.33,75.11,70.61,0.27,25.61
,,0,2025-11-18T17:43:36.048Z,9.88,9.3,-1.86,2.74,59.79,55.76,8.15,20.01
,,0,2025-11-18T17:43:36.058Z,10.49,9.61,-2.68,3.23,53.05,49.76,14.4,11.45
,,0,2025-11-18T17:43:36.068Z,10.9,9.85,-3.41,3.19,53.56,49.76,19.48,3.55
,,0,2025-11-18T17:43:36.078Z,10.98,10.04,-3.66,2.52,51.09,44.83,24.42,-1.96
,,0,2025-11-18T17:43:36.088Z,11.28,10.36,-3.98,2.02,47.96,34.31,31.64,-11.05
,,0,2025-11-18T17:43:36.098Z,11.8,10.93,-3.95,2.05,54.53,25.09,38.97,-28.73
,,0,2025-11-18T17:43:36.108Z,12.36,11.51,-3.84,2.39,71.21,24.79,47.08,-47.33
,,0,2025-11-18T17:43:36.118Z,12.42,11.87,-2.9,2.21,80.42,20.38,53.68,-56.31
,,0,2025-11-18T17:43:36.128Z,12.37,12.2,-1.07,1.71,89.55,14.64,60.44,-64.44
,,0,2025-11-18T17:43:36.138Z,13.18,12.94,-1.06,2.23,101.79,7.95,70.34,-73.15
,,0,2025-11-18T17:43:36.148Z,13.48,13.26,-0.93,2.27,111.42,-12.68,77.09,-79.44
,,0,2025-11-18T17:43:36.158Z,14.02,13.78,-0.12,2.59,123.94,-40.96,85.13,-80.23
,,0,2025-11-18T17:43:36.168Z,14.61,14.37,-0.64,2.59,143.73,-69.29,93.9,-83.91
,,0,2025-11-18T17:43:36.178Z,15.79,15.34,-2.63,2.66,165.19,-89.6,98.9,-97.36
,,0,2025-11-18T17:43:36.188Z,17.16,16.41,-4.6,2.01,184.54,-101.04,102.73,-115.3
,,0,2025-11-18T17:43:36.198Z,18.46,17.9,-4.35,1.26,202.16,-110.39,107.63,-130.76
,,0,2025-11-18T17:43:36.208Z,19.59,19.36,-2.88,-0.82,219.72,-109.23,115.63,-151.57
,,0,2025-11-18T17:43:36.218Z,19.71,19.62,-1,-1.6,250.13,-128.87,136.85,-165.01
,,0,2025-11-18T17:43:36.228Z,19.62,19.62,0.02,-0.21,289.05,-163,165.01,-172.5
,,0,2025-11-18T17:43:36.238Z,19.63,19.62,-0.59,0.35,334.93,-206.21,188.9,-184.31
,,0,2025-11-18T17:43:36.248Z,19.69,19.62,-0.65,-1.57,387.96,-250.14,224.07,-194.25
,,0,2025-11-18T17:43:36.258Z,20.12,19.62,1.8,-4.1,407.2,-250.14,250.13,-201.68
,,0,2025-11-18T17:43:36.268Z,21.42,19.62,3.21,-7.98,419.34,-250.14,250.13,-225.2
,,0,2025-11-18T17:43:36.278Z,23.44,19.62,0.86,-12.8,431.21,-250.14,250.13,-246.59
,,0,2025-11-18T17:43:36.288Z,26.36,19.62,-1.88,-17.51,433.25,-250.14,250.13,-250.14
,,0,2025-11-18T17:43:36.298Z,27.82,19.62,-2.08,-19.62,433.25,-250.14,250.13,-250.14
,,0,2025-11-18T17:43:36.308Z,28.02,19.62,-3.94,-19.62,431.76,-250.14,250.13,-247.55
,,0,2025-11-18T17:43:36.318Z,28.61,19.62,-6.97,-19.62,419.65,-250.14,250.13,-225.76
,,0,2025-11-18T17:43:36.328Z,29.13,19.62,-8.87,-19.62,406.31,-250.14,250.13,-199.89
,,0,2025-11-18T17:43:36.338Z,29.73,19.62,-10.67,-19.62,384.06,-250.14,250.13,-149.57
,,0,2025-11-18T17:43:36.348Z,29.6,19.62,-10.31,-19.62,361.99,-250.14,250.13,-76.85
,,0,2025-11-18T17:43:36.358Z,29.64,19.62,-10.42,-19.62,354.24,-250.14,250.13,18.86
,,0,2025-11-18T17:43:36.368Z,26.84,13.93,-11.9,-19.62,376.44,-250.14,250.13,128.74
,,0,2025-11-18T17:43:36.378Z,26.42,5.88,-16.68,-19.62,433.24,-250.14,250.13,250.13
,,0,2025-11-18T17:43:36.388Z,27.99,-3.7,-19.62,-19.62,433.24,-250.14,250.13,250.13
,,0,2025-11-18T17:43:36.398Z,31.72,-15.37,-19.62,-19.62,433.24,-250.14,250.13,250.13
,,0,2025-11-18T17:43:36.408Z,32.32,-16.58,-19.62,-19.62,433.24,-250.14,250.13,250.13
,,0,2025-11-18T17:43:36.418Z,28.41,-6.1,-19.62,-19.62,354.83,-27.85,250.13,250.13
,,0,2025-11-18T17:43:36.428Z,25.23,2.65,-15.64,-19.62,357.15,49.28,250.13,250.13
,,0,2025-11-18T17:43:36.438Z,10.96,4.32,-2.34,-9.79,354.22,18.5,250.13,250.13
