#group,FALSE,FALSE,FALSE,FALSE,FALSE,FALSE,FALSE,FALSE,FALSE,FALSE,FALSE
#datatype,string,long,dateTime:RFC3339,double,double,double,double,double,double,double,double
#default,_result,,,,,,,,,,
,result,table,_time,Amag,Ax,Ay,Az,Gmag,Gx,Gy,Gz
,,0,2025-11-18T17:40:00.259Z,9.7,9.18,-3.12,-0.47,6.23,-2.73,1.66,-5.35
,,0,2025-11-18T17:40:00.301Z,9.77,9.29,-2.99,-0.57,6.58,-3.42,2.37,-5.1
,,0,2025-11-18T17:40:00.31Z,9.75,9.27,-2.97,-0.57,6.43,-3.45,2.53,-4.79
,,0,2025-11-18T17:40:00.32Z,9.73,9.25,-2.94,-0.69,6.56,-3.73,2.53,-4.77
,,0,2025-11-18T17:40:00.33Z,9.69,9.2,-2.95,-0.63,6.6,-3.78,2.83,-4.61
,,0,2025-11-18T17:40:00.34Z,9.68,9.2,-2.96,-0.58,6.35,-3.7,2.44,-4.54
,,0,2025-11-18T17:40:00.35Z,9.65,9.13,-3.03,-0.72,6.43,-4.01,2.69,-4.25
,,0,2025-11-18T17:40:00.36Z,9.67,9.15,-3.04,-0.72,6.41,-4.2,2.08,-4.37
,,0,2025-11-18T17:40:00.37Z,9.73,9.22,-2.98,-0.8,6.38,-4.34,1.77,-4.32
,,0,2025-11-18T17:40:00.38Z,9.66,9.14,-3.01,-0.81,6.59,-4.41,1.79,-4.55
,,0,2025-11-18T17:40:00.39Z,9.71,9.17,-3.11,-0.77,5.97,-3.71,1.52,-4.43
,,0,2025-11-18T17:40:00.4Z,9.79,9.24,-3.17,-0.68,5.85,-2.89,1.3,-4.92
,,0,2025-11-18T17:40:00.41Z,9.74,9.2,-3.12,-0.75,5.83,-2.08,1.56,-5.22
,,0,2025-11-18T17:40:00.42Z,9.64,9.1,-3.1,-0.66,6.08,-2.73,1.73,-5.15
,,0,2025-11-18T17:40:00.43Z,9.62,9.11,-3.05,-0.66,6.49,-2.77,1.91,-5.55
,,0,2025-11-18T17:40:00.44Z,9.68,9.14,-3.13,-0.57,6.34,-3.18,1.37,-5.31
,,0,2025-11-18T17:40:00.45Z,9.71,9.13,-3.25,-0.57,6.15,-2.78,1.35,-5.32
,,0,2025-11-18T17:40:00.46Z,9.73,9.13,-3.31,-0.54,6.54,-3.14,1.02,-5.64
,,0,2025-11-18T17:40:00.47Z,9.71,9.13,-3.28,-0.44,6.25,-2.68,0.96,-5.56
,,0,2025-11-18T17:40:00.48Z,9.68,9.12,-3.2,-0.48,6.31,-3.71,0.72,-5.05
,,0,2025-11-18T17:40:00.49Z,9.69,9.14,-3.21,-0.4,6.41,-4.3,0.87,-4.67
,,0,2025-11-18T17:40:00.5Z,9.76,9.17,-3.31,-0.47,6.21,-4.31,0.61,-4.42
,,0,2025-11-18T17:40:00.51Z,9.84,9.24,-3.35,-0.53,6.06,-3.42,0.77,-4.94
,,0,2025-11-18T17:40:00.52Z,9.81,9.21,-3.36,-0.45,6.01,-2.92,0.93,-5.18
,,0,2025-11-18T17:40:00.53Z,9.84,9.26,-3.31,-0.46,6.12,-1.91,0.91,-5.75
,,0,2025-11-18T17:40:00.54Z,9.82,9.23,-3.34,-0.46,6.05,-1.37,0.76,-5.85
,,0,2025-11-18T17:40:00.55Z,9.88,9.3,-3.3,-0.57,6.31,-0.67,0.56,-6.25
,,0,2025-11-18T17:40:00.56Z,9.83,9.26,-3.26,-0.57,6.8,-0.3,0.73,-6.76
,,0,2025-11-18T17:40:00.57Z,9.74,9.2,-3.14,-0.54,6.81,-0.12,1.11,-6.72
,,0,2025-11-18T17:40:00.58Z,9.7,9.16,-3.16,-0.45,6.3,-0.49,0.63,-6.25
,,0,2025-11-18T17:40:00.59Z,9.73,9.2,-3.12,-0.52,6.16,0.04,0.77,-6.11
,,0,2025-11-18T17:40:00.6Z,9.77,9.24,-3.14,-0.5,6.3,-0.33,0.9,-6.23
,,0,2025-11-18T17:40:00.61Z,9.77,9.26,-3.08,-0.52,6.34,0.11,1.23,-6.21
,,0,2025-11-18T17:40:00.62Z,9.78,9.3,-2.97,-0.62,6.12,0.11,1.39,-5.96
,,0,2025-11-18T17:40:00.63Z,9.75,9.27,-2.95,-0.71,5.99,-0.11,1.36,-5.83
,,0,2025-11-18T17:40:00.64Z,9.74,9.28,-2.93,-0.58,5.95,-0.84,1.34,-5.73
,,0,2025-11-18T17:40:00.65Z,9.73,9.26,-2.92,-0.64,5.82,-1.13,1.37,-5.54
,,0,2025-11-18T17:40:00.66Z,9.76,9.28,-2.96,-0.67,5.69,-1.47,1.3,-5.34
,,0,2025-11-18T17:40:00.67Z,9.75,9.26,-2.97,-0.68,5.63,-1.53,1.36,-5.24
,,0,2025-11-18T17:40:00.68Z,9.69,9.2,-2.96,-0.72,5.88,-1.88,1.08,-5.47
,,0,2025-11-18T17:40:00.69Z,9.74,9.24,-3.01,-0.68,5.61,-1.81,1.38,-5.13
,,0,2025-11-18T17:40:00.7Z,9.72,9.22,-3.02,-0.65,5.49,-1.57,1.08,-5.15
,,0,2025-11-18T17:40:00.71Z,9.76,9.24,-3.06,-0.61,5.4,-1.59,0.91,-5.08
,,0,2025-11-18T17:40:00.72Z,9.76,9.25,-3.06,-0.56,5.46,-1.47,1.11,-5.15
,,0,2025-11-18T17:40:00.73Z,9.73,9.22,-3.04,-0.6,5.42,-1.55,1.29,-5.03
,,0,2025-11-18T17:40:00.74Z,9.68,9.19,-3.01,-0.55,5.35,-1.85,1.26,-4.86
,,0,2025-11-18T17:40:00.75Z,9.7,9.19,-3.07,-0.56,5.34,-1.69,1.14,-4.94
,,0,2025-11-18T17:40:00.76Z,9.75,9.21,-3.13,-0.61,5.58,-2.08,0.92,-5.1
,,0,2025-11-18T17:40:00.77Z,9.82,9.29,-3.13,-0.48,5.63,-1.51,1.08,-5.31
,,0,2025-11-18T17:40:00.78Z,9.77,9.24,-3.15,-0.44,5.81,-1.71,1.18,-5.42
,,0,2025-11-18T17:40:00.79Z,9.82,9.27,-3.22,-0.45,6.05,-1.38,1.4,-5.72
,,0,2025-11-18T17:40:00.8Z,9.79,9.25,-3.16,-0.52,6.1,-1.55,1.56,-5.69
,,0,2025-11-18T17:40:00.81Z,9.73,9.19,-3.16,-0.51,6.05,-1.7,1.57,-5.59
,,0,2025-11-18T17:40:00.82Z,9.69,9.13,-3.22,-0.54,6.05,-1.56,1.66,-5.6
,,0,2025-11-18T17:40:00.83Z,9.8,9.23,-3.25,-0.49,6.25,-0.92,1.73,-5.94
,,0,2025-11-18T17:40:00.84Z,9.71,9.16,-3.17,-0.56,6.15,-0.65,1.62,-5.89
,,0,2025-11-18T17:40:00.85Z,9.71,9.19,-3.08,-0.48,5.95,-0.15,1.52,-5.76
,,0,2025-11-18T17:40:00.86Z,9.7,9.16,-3.15,-0.53,5.75,-0.09,1.13,-5.64
,,0,2025-11-18T17:40:00.87Z,9.72,9.19,-3.12,-0.52,5.62,-0.18,1.24,-5.48
,,0,2025-11-18T17:40:00.88Z,9.69,9.17,-3.1,-0.53,5.91,0,1.18,-5.79
,,0,2025-11-18T17:40:00.89Z,9.69,9.17,-3.07,-0.57,6.09,-0.13,1.39,-5.93
,,0,2025-11-18T17:40:00.9Z,9.7,9.18,-3.08,-0.65,5.99,-0.3,1.49,-5.79
,,0,2025-11-18T17:40:00.91Z,9.7,9.19,-3.05,-0.6,5.74,-0.42,1.4,-5.55
,,0,2025-11-18T17:40:00.92Z,9.71,9.21,-3.02,-0.68,5.51,-1.24,1.52,-5.15
,,0,2025-11-18T17:40:00.93Z,9.74,9.23,-3.04,-0.69,5.57,-1.2,1.42,-5.25
,,0,2025-11-18T17:40:00.94Z,9.73,9.22,-3.04,-0.67,5.56,-1.08,1.25,-5.31
,,0,2025-11-18T17:40:00.95Z,9.7,9.2,-2.97,-0.69,5.83,-1.1,1.16,-5.61
,,0,2025-11-18T17:40:00.96Z,9.72,9.23,-2.96,-0.65,5.61,-1.13,0.97,-5.4
,,0,2025-11-18T17:40:00.97Z,9.72,9.24,-2.97,-0.61,5.36,-1.02,1.01,-5.17
,,0,2025-11-18T17:40:00.98Z,9.73,9.25,-2.96,-0.63,5.75,-1.17,0.97,-5.54
,,0,2025-11-18T17:40:00.99Z,9.72,9.23,-2.99,-0.6,5.57,-1.55,1.01,-5.26
,,0,2025-11-18T17:40:01Z,9.73,9.24,-2.99,-0.57,5.66,-2,1.18,-5.17
,,0,2025-11-18T17:40:01.01Z,9.73,9.23,-3.02,-0.63,5.91,-2.24,1.27,-5.31
,,0,2025-11-18T17:40:01.02Z,9.73,9.21,-3.08,-0.58,5.97,-2.69,1.24,-5.18
,,0,2025-11-18T17:40:01.03Z,9.74,9.23,-3.06,-0.52,6.24,-3.02,1.04,-5.36
,,0,2025-11-18T17:40:01.04Z,9.71,9.18,-3.1,-0.6,6.26,-3.15,1.4,-5.23
,,0,2025-11-18T17:40:01.05Z,9.8,9.27,-3.14,-0.51,5.91,-3.1,1.52,-4.8
,,0,2025-11-18T17:40:01.06Z,9.83,9.29,-3.14,-0.56,6.21,-2.92,1.82,-5.17
,,0,2025-11-18T17:40:01.07Z,9.79,9.25,-3.16,-0.54,6.04,-2.84,1.92,-4.98
,,0,2025-11-18T17:40:01.08Z,9.77,9.23,-3.17,-0.52,5.8,-2.33,1.58,-5.07
,,0,2025-11-18T17:40:01.09Z,9.79,9.25,-3.14,-0.57,5.77,-2.34,1.6,-5.03
,,0,2025-11-18T17:40:01.1Z,9.78,9.27,-3.07,-0.56,5.52,-2.61,1.72,-4.55
,,0,2025-11-18T17:40:01.11Z,9.74,9.22,-3.06,-0.63,6.19,-3.55,1.63,-4.81
,,0,2025-11-18T17:40:01.12Z,9.74,9.23,-3.07,-0.53,6.21,-3.68,1.66,-4.72
,,0,2025-11-18T17:40:01.13Z,9.75,9.23,-3.08,-0.61,6.16,-3.69,1.66,-4.64
,,0,2025-11-18T17:40:01.14Z,9.78,9.25,-3.11,-0.64,6.2,-3.23,1.77,-4.98
,,0,2025-11-18T17:40:01.15Z,9.77,9.24,-3.1,-0.62,6.7,-3.45,2.07,-5.36
,,0,2025-11-18T17:40:01.16Z,9.75,9.22,-3.13,-0.62,6.49,-3.23,1.75,-5.35
,,0,2025-11-18T17:40:01.17Z,9.74,9.21,-3.12,-0.58,6.22,-2.75,1.54,-5.36
,,0,2025-11-18T17:40:01.18Z,9.76,9.23,-3.13,-0.57,6.39,-2.93,1.77,-5.4
,,0,2025-11-18T17:40:01.19Z,9.71,9.19,-3.07,-0.61,6.28,-2.58,1.7,-5.47
,,0,2025-11-18T17:40:01.2Z,9.7,9.19,-3.05,-0.53,6.36,-2.85,1.46,-5.49
,,0,2025-11-18T17:40:01.21Z,9.73,9.22,-3.07,-0.55,6.19,-2.71,1.52,-5.36
,,0,2025-11-18T17:40:01.22Z,9.72,9.19,-3.11,-0.5,6.22,-2.53,1.64,-5.44
,,0,2025-11-18T17:40:01.23Z,9.7,9.17,-3.1,-0.54,6.55,-2.81,1.93,-5.6
,,0,2025-11-18T17:40:01.24Z,9.66,9.15,-3.05,-0.54,6.82,-2.96,2.39,-5.66
,,0,2025-11-18T17:40:01.25Z,9.68,9.16,-3.04,-0.7,6.69,-3.44,2.07,-5.35
,,0,2025-11-18T17:40:01.26Z,9.7,9.16,-3.11,-0.62,6.41,-3.38,1.95,-5.08
,,0,2025-11-18T17:40:01.27Z,9.74,9.21,-3.09,-0.65,6.43,-2.92,2.16,-5.31
,,0,2025-11-18T17:40:01.28Z,9.78,9.22,-3.19,-0.66,6.31,-2.56,1.84,-5.47
,,0,2025-11-18T17:40:01.29Z,9.77,9.24,-3.11,-0.57,6.2,-2.11,1.82,-5.53
,,0,2025-11-18T17:40:01.3Z,9.69,9.18,-3.06,-0.57,6.07,-2.37,1.6,-5.35
,,0,2025-11-18T17:40:01.31Z,9.66,9.17,-2.99,-0.58,5.81,-2.61,1.79,-4.87
,,0,2025-11-18T17:40:01.32Z,9.71,9.21,-3.04,-0.49,6.19,-3.37,1.75,-4.89
,,0,2025-11-18T17:40:01.33Z,9.69,9.19,-3.03,-0.63,6.44,-3.66,1.69,-5.02
,,0,2025-11-18T17:40:01.34Z,9.77,9.26,-3.04,-0.63,6.39,-3.37,1.66,-5.17
,,0,2025-11-18T17:40:01.35Z,9.81,9.26,-3.17,-0.6,6.64,-3.55,1.6,-5.38
,,0,2025-11-18T17:40:01.36Z,9.84,9.29,-3.2,-0.57,6.51,-3.22,1.6,-5.43
,,0,2025-11-18T17:40:01.37Z,9.87,9.32,-3.22,-0.58,6.44,-2.79,1.21,-5.68
,,0,2025-11-18T17:40:01.38Z,9.88,9.31,-3.25,-0.51,6.51,-2.3,1.18,-5.98
,,0,2025-11-18T17:40:01.39Z,9.8,9.25,-3.21,-0.45,6.91,-1.83,1.64,-6.46
,,0,2025-11-18T17:40:01.4Z,9.76,9.22,-3.19,-0.47,6.83,-1.86,1.79,-6.33
,,0,2025-11-18T17:40:01.41Z,9.75,9.2,-3.17,-0.5,6.55,-2.19,1.5,-5.98
,,0,2025-11-18T17:40:01.42Z,9.68,9.15,-3.15,-0.43,6.1,-2.31,1.63,-5.41
,,0,2025-11-18T17:40:01.43Z,9.75,9.21,-3.15,-0.44,6.34,-1.87,1.89,-5.76
,,0,2025-11-18T17:40:01.44Z,9.73,9.21,-3.09,-0.48,6.16,-1.79,2.31,-5.42
,,0,2025-11-18T17:40:01.45Z,9.7,9.19,-3.05,-0.55,6.13,-2.15,2.2,-5.31
,,0,2025-11-18T17:40:01.46Z,9.69,9.19,-3.04,-0.54,6.1,-2.2,2.05,-5.31
,,0,2025-11-18T17:40:01.47Z,9.69,9.16,-3.1,-0.55,5.96,-2.17,2.24,-5.08
,,0,2025-11-18T17:40:01.48Z,9.67,9.16,-3.07,-0.53,5.54,-1.67,1.89,-4.94
,,0,2025-11-18T17:40:01.49Z,9.72,9.2,-3.06,-0.58,5.48,-2.21,1.95,-4.63
,,0,2025-11-18T17:40:01.5Z,9.73,9.2,-3.12,-0.5,5.86,-2.55,1.77,-4.97
,,0,2025-11-18T17:40:01.51Z,9.77,9.23,-3.15,-0.58,5.94,-2.27,1.98,-5.11
,,0,2025-11-18T17:40:01.52Z,9.76,9.2,-3.21,-0.57,5.67,-1.57,1.75,-5.16
,,0,2025-11-18T17:40:01.53Z,9.75,9.2,-3.15,-0.63,5.36,-0.67,1.57,-5.08
,,0,2025-11-18T17:40:01.54Z,9.72,9.19,-3.11,-0.66,5.38,-0.8,1.72,-5.04
,,0,2025-11-18T17:40:01.55Z,9.65,9.14,-3.05,-0.62,5.07,-0.71,1.46,-4.8
,,0,2025-11-18T17:40:01.56Z,9.69,9.18,-3.05,-0.65,4.93,-1.26,1.59,-4.5
,,0,2025-11-18T17:40:01.57Z,9.64,9.14,-3,-0.57,5.3,-1.78,1.6,-4.73
,,0,2025-11-18T17:40:01.58Z,9.7,9.21,-3.02,-0.55,5.25,-2.19,1.7,-4.46
,,0,2025-11-18T17:40:01.59Z,9.68,9.17,-3.05,-0.63,5.61,-2.65,1.34,-4.76
,,0,2025-11-18T17:40:01.6Z,9.66,9.15,-3.07,-0.47,5.18,-2.73,1.23,-4.23
,,0,2025-11-18T17:40:01.61Z,9.74,9.18,-3.21,-0.56,5.63,-2.66,0.8,-4.9
,,0,2025-11-18T17:40:01.62Z,9.73,9.18,-3.21,-0.5,5.58,-2.03,0.98,-5.11
,,0,2025-11-18T17:40:01.63Z,9.73,9.18,-3.17,-0.58,5.47,-1.61,0.76,-5.17
,,0,2025-11-18T17:40:01.64Z,9.7,9.15,-3.19,-0.53,5.43,-1.44,0.6,-5.2
,,0,2025-11-18T17:40:01.65Z,9.75,9.19,-3.22,-0.51,5.28,-1.1,0.66,-5.12
,,0,2025-11-18T17:40:01.66Z,9.76,9.2,-3.22,-0.48,5.31,-0.95,0.56,-5.19
,,0,2025-11-18T17:40:01.67Z,9.7,9.15,-3.18,-0.47,5.58,-0.52,0.63,-5.52
,,0,2025-11-18T17:40:01.68Z,9.73,9.19,-3.17,-0.46,4.93,-0.66,0.64,-4.84
,,0,2025-11-18T17:40:01.69Z,9.76,9.22,-3.17,-0.43,5.33,-0.95,0.89,-5.17
,,0,2025-11-18T17:40:01.7Z,9.76,9.23,-3.13,-0.41,5.27,-1.37,0.62,-5.05
,,0,2025-11-18T17:40:01.71Z,9.74,9.21,-3.13,-0.51,5.31,-1.84,1.24,-4.82
,,0,2025-11-18T17:40:01.72Z,9.77,9.27,-3.05,-0.52,5.45,-2.4,1.53,-4.65
,,0,2025-11-18T17:40:01.73Z,9.75,9.24,-3.04,-0.57,5.64,-2.62,1.55,-4.75
,,0,2025-11-18T17:40:01.74Z,9.74,9.21,-3.11,-0.57,5.47,-2.95,1.42,-4.38
,,0,2025-11-18T17:40:01.75Z,9.77,9.23,-3.13,-0.67,5.08,-2.47,0.93,-4.34
,,0,2025-11-18T17:40:01.76Z,9.79,9.27,-3.06,-0.66,5.35,-2.13,0.95,-4.82
,,0,2025-11-18T17:40:01.77Z,9.74,9.24,-2.98,-0.67,5.45,-2.07,1.08,-4.93
,,0,2025-11-18T17:40:01.78Z,9.66,9.16,-3.02,-0.61,5.63,-2.45,0.44,-5.05
,,0,2025-11-18T17:40:01.79Z,9.76,9.25,-3.05,-0.66,5.56,-2.32,0.31,-5.04
,,0,2025-11-18T17:40:01.8Z,9.78,9.28,-3.04,-0.62,5.7,-1.92,0.21,-5.36
,,0,2025-11-18T17:40:01.81Z,9.77,9.26,-3.06,-0.56,5.64,-1.73,0.5,-5.34
,,0,2025-11-18T17:40:01.82Z,9.75,9.23,-3.08,-0.58,6.21,-2.24,0.66,-5.75
,,0,2025-11-18T17:40:01.83Z,9.72,9.19,-3.11,-0.53,6.3,-1.89,0.72,-5.97
,,0,2025-11-18T17:40:01.84Z,9.71,9.18,-3.12,-0.6,5.71,-1.84,0.37,-5.4
,,0,2025-11-18T17:40:01.85Z,9.77,9.24,-3.12,-0.56,5.73,-1.66,0.75,-5.44
,,0,2025-11-18T17:40:01.86Z,9.75,9.22,-3.13,-0.44,6.66,-2.44,1.12,-6.09
,,0,2025-11-18T17:40:01.87Z,9.69,9.17,-3.1,-0.57,6.54,-2.79,1.36,-5.76
,,0,2025-11-18T17:40:01.88Z,9.72,9.19,-3.11,-0.53,6.1,-3.01,0.83,-5.24
,,0,2025-11-18T17:40:01.89Z,9.73,9.19,-3.15,-0.46,6.29,-3.08,1.17,-5.37
,,0,2025-11-18T17:40:01.9Z,9.77,9.21,-3.23,-0.46,6.36,-2.96,1.47,-5.44
,,0,2025-11-18T17:40:01.91Z,9.75,9.2,-3.19,-0.52,6.45,-2.64,1.75,-5.62
,,0,2025-11-18T17:40:01.92Z,9.79,9.23,-3.22,-0.53,6.42,-2.53,1.44,-5.73
,,0,2025-11-18T17:40:01.93Z,9.74,9.18,-3.2,-0.55,6.01,-2,1.59,-5.44
,,0,2025-11-18T17:40:01.94Z,9.7,9.16,-3.13,-0.61,6.28,-2.39,1.7,-5.55
,,0,2025-11-18T17:40:01.95Z,9.74,9.19,-3.15,-0.58,6.25,-2.32,1.47,-5.62
,,0,2025-11-18T17:40:01.96Z,9.71,9.17,-3.14,-0.57,6.22,-2.44,1.68,-5.47
,,0,2025-11-18T17:40:01.97Z,9.72,9.19,-3.11,-0.59,6.26,-2.17,1.44,-5.69
,,0,2025-11-18T17:40:01.98Z,9.72,9.2,-3.09,-0.58,6.29,-2.26,1.58,-5.65
,,0,2025-11-18T17:40:01.99Z,9.71,9.2,-3.04,-0.57,6.19,-2.37,1.56,-5.5
,,0,2025-11-18T17:40:02Z,9.69,9.17,-3.11,-0.49,6.11,-2.37,1.35,-5.47
,,0,2025-11-18T17:40:02.01Z,9.73,9.21,-3.1,-0.55,6.22,-2.97,1.35,-5.3
,,0,2025-11-18T17:40:02.02Z,9.75,9.24,-3.08,-0.51,6.14,-3.19,1.3,-5.08
,,0,2025-11-18T17:40:02.03Z,9.74,9.21,-3.11,-0.55,6.39,-3.76,1.63,-4.9
,,0,2025-11-18T17:40:02.04Z,9.71,9.19,-3.08,-0.53,6.22,-3.89,1.37,-4.66
,,0,2025-11-18T17:40:02.05Z,9.68,9.18,-3.05,-0.53,6.27,-3.94,1.34,-4.69
,,0,2025-11-18T17:40:02.06Z,9.66,9.15,-3.08,-0.45,6.06,-4.09,1.24,-4.3
,,0,2025-11-18T17:40:02.07Z,9.66,9.16,-3.03,-0.41,6.3,-4.63,1.47,-4.01
,,0,2025-11-18T17:40:02.08Z,9.67,9.16,-3.07,-0.47,6.13,-4.66,0.92,-3.88
,,0,2025-11-18T17:40:02.09Z,9.72,9.21,-3.09,-0.42,5.91,-4.47,0.95,-3.74
,,0,2025-11-18T17:40:02.1Z,9.67,9.17,-3.06,-0.42,5.67,-3.9,0.88,-4.02
,,0,2025-11-18T17:40:02.11Z,9.75,9.26,-3.03,-0.4,5.59,-3.85,1.32,-3.83
,,0,2025-11-18T17:40:02.12Z,9.72,9.23,-3,-0.49,6.11,-4.8,1.54,-3.46
,,0,2025-11-18T17:40:02.13Z,9.76,9.25,-3.07,-0.5,6.17,-4.78,1.65,-3.54
,,0,2025-11-18T17:40:02.14Z,9.78,9.27,-3.07,-0.56,6.34,-4.63,1.79,-3.94
,,0,2025-11-18T17:40:02.15Z,9.85,9.32,-3.14,-0.66,6.36,-4.37,2.31,-4.01
,,0,2025-11-18T17:40:02.16Z,9.9,9.34,-3.21,-0.67,6.27,-4.11,2.21,-4.18
,,0,2025-11-18T17:40:02.17Z,9.92,9.33,-3.28,-0.74,6.04,-3.82,1.96,-4.25
,,0,2025-11-18T17:40:02.18Z,9.88,9.29,-3.29,-0.69,5.77,-3.09,1.73,-4.56
,,0,2025-11-18T17:40:02.19Z,9.86,9.26,-3.32,-0.66,6.17,-3.01,1.79,-5.08
,,0,2025-11-18T17:40:02.2Z,9.79,9.21,-3.27,-0.59,5.79,-2.53,1.46,-5
,,0,2025-11-18T17:40:02.21Z,9.79,9.22,-3.25,-0.62,5.58,-2.05,1.53,-4.95
,,0,2025-11-18T17:40:02.22Z,9.73,9.18,-3.18,-0.46,5.38,-1.98,1.66,-4.71
,,0,2025-11-18T17:40:02.23Z,9.79,9.24,-3.16,-0.6,5.37,-1.98,1.91,-4.61
,,0,2025-11-18T17:40:02.24Z,9.77,9.28,-3.04,-0.48,5.7,-2.45,2.41,-4.55
,,0,2025-11-18T17:40:02.25Z,9.76,9.27,-3.02,-0.44,5.72,-3.31,2.02,-4.21
,,0,2025-11-18T17:40:02.26Z,9.73,9.23,-3.03,-0.55,6.01,-3.89,2.05,-4.11
,,0,2025-11-18T17:40:02.27Z,9.76,9.27,-3.01,-0.51,6.13,-4.08,2.13,-4.05
,,0,2025-11-18T17:40:02.28Z,9.68,9.17,-3.06,-0.5,6.39,-4.52,2.27,-3.9
,,0,2025-11-18T17:40:02.29Z,9.68,9.18,-3.04,-0.56,6.83,-5.01,2.34,-4.02
,,0,2025-11-18T17:40:02.3Z,9.67,9.17,-3.03,-0.61,6.25,-4.45,2.22,-3.79
,,0,2025-11-18T17:40:02.457Z,9.78,9.21,-3.23,-0.53,7.12,-4.02,2.12,-5.48
,,0,2025-11-18T17:40:02.466Z,9.7,9.14,-3.2,-0.49,6.91,-3.85,2.02,-5.37
,,0,2025-11-18T17:40:02.476Z,9.76,9.2,-3.19,-0.57,6.64,-3.89,1.79,-5.08
,,0,2025-11-18T17:40:02.486Z,9.72,9.18,-3.15,-0.43,6.82,-4.14,1.94,-5.06
,,0,2025-11-18T17:40:02.496Z,9.68,9.16,-3.09,-0.5,7.2,-4.27,2.28,-5.33
,,0,2025-11-18T17:40:02.506Z,9.65,9.14,-3.05,-0.49,7.63,-5.22,2.08,-5.16
,,0,2025-11-18T17:40:02.516Z,9.66,9.18,-2.95,-0.54,7.29,-5.39,2.37,-4.31
,,0,2025-11-18T17:40:02.526Z,9.73,9.17,-3.22,-0.54,7.82,-6.21,2.11,-4.27
,,0,2025-11-18T17:40:02.536Z,9.76,9.17,-3.3,-0.54,7.63,-5.44,1.79,-5.05
,,0,2025-11-18T17:40:02.546Z,9.76,9.21,-3.19,-0.59,7.82,-4.66,2.56,-5.73
,,0,2025-11-18T17:40:02.556Z,9.64,9.11,-3.11,-0.58,7.7,-4.96,2.5,-5.34
,,0,2025-11-18T17:40:02.566Z,9.62,9.06,-3.18,-0.63,7.3,-4.9,1.96,-5.04
,,0,2025-11-18T17:40:02.576Z,9.73,9.13,-3.32,-0.63,7.08,-4.32,1.62,-5.37
,,0,2025-11-18T17:40:02.586Z,9.71,9.14,-3.22,-0.6,7.23,-4.18,1.88,-5.6
,,0,2025-11-18T17:40:02.596Z,9.67,9.12,-3.15,-0.62,7.04,-3.94,1.52,-5.63
,,0,2025-11-18T17:40:02.606Z,9.69,9.13,-3.21,-0.6,7.26,-4.38,1.25,-5.65
,,0,2025-11-18T17:40:02.616Z,9.73,9.14,-3.29,-0.5,7.04,-3.95,1.18,-5.71
,,0,2025-11-18T17:40:02.626Z,9.74,9.17,-3.25,-0.51,6.85,-3.34,1.32,-5.84
,,0,2025-11-18T17:40:02.636Z,9.73,9.16,-3.23,-0.52,6.82,-3.37,1.47,-5.75
,,0,2025-11-18T17:40:02.646Z,9.79,9.2,-3.31,-0.49,6.64,-3.06,1.28,-5.76
,,0,2025-11-18T17:40:02.656Z,9.77,9.19,-3.3,-0.48,6.33,-2.95,1.4,-5.42
,,0,2025-11-18T17:40:02.666Z,9.79,9.24,-3.17,-0.54,6.21,-2.66,1.2,-5.49
,,0,2025-11-18T17:40:02.676Z,9.75,9.19,-3.22,-0.47,6.39,-2.8,1.68,-5.5
,,0,2025-11-18T17:40:02.686Z,9.79,9.22,-3.25,-0.47,6.46,-2.92,1.68,-5.52
,,0,2025-11-18T17:40:02.696Z,9.75,9.18,-3.23,-0.49,6.04,-2.47,1.57,-5.29
,,0,2025-11-18T17:40:02.706Z,9.78,9.22,-3.24,-0.48,6.32,-2.78,1.69,-5.41
,,0,2025-11-18T17:40:02.716Z,9.75,9.21,-3.16,-0.53,5.99,-2.66,1.82,-5.05
,,0,2025-11-18T17:40:02.726Z,9.77,9.23,-3.13,-0.57,6.02,-2.79,2.07,-4.92
,,0,2025-11-18T17:40:02.736Z,9.77,9.23,-3.14,-0.55,6.04,-3.1,2.03,-4.77
,,0,2025-11-18T17:40:02.746Z,9.72,9.18,-3.17,-0.56,6.04,-3.02,1.89,-4.87
,,0,2025-11-18T17:40:02.756Z,9.75,9.21,-3.15,-0.58,6.12,-3.05,1.75,-5.01
,,0,2025-11-18T17:40:02.766Z,9.78,9.25,-3.14,-0.54,5.88,-2.71,1.33,-5.05
,,0,2025-11-18T17:40:02.776Z,9.76,9.19,-3.22,-0.64,5.81,-2.6,1.45,-4.98
,,0,2025-11-18T17:40:02.786Z,9.74,9.18,-3.2,-0.59,5.61,-2.46,1.34,-4.86
,,0,2025-11-18T17:40:02.796Z,9.77,9.23,-3.16,-0.64,5.47,-2.34,1.41,-4.74
,,0,2025-11-18T17:40:02.806Z,9.77,9.23,-3.14,-0.63,5.93,-2.79,1.47,-5.02
,,0,2025-11-18T17:40:02.816Z,9.76,9.2,-3.19,-0.62,5.74,-2.7,1.47,-4.85
,,0,2025-11-18T17:40:02.826Z,9.71,9.15,-3.22,-0.56,5.6,-2.31,1.54,-4.86
,,0,2025-11-18T17:40:02.836Z,9.73,9.16,-3.22,-0.53,5.36,-2.06,1.37,-4.76
,,0,2025-11-18T17:40:02.846Z,9.71,9.15,-3.22,-0.51,5.54,-1.79,1.2,-5.11
,,0,2025-11-18T17:40:02.856Z,9.78,9.22,-3.22,-0.55,5.35,-1.8,1.3,-4.87
,,0,2025-11-18T17:40:02.866Z,9.72,9.16,-3.21,-0.5,5.16,-1.47,1.42,-4.73
,,0,2025-11-18T17:40:02.876Z,9.75,9.21,-3.16,-0.56,5.28,-1.31,1.73,-4.81
,,0,2025-11-18T17:40:02.886Z,9.62,9.13,-3.01,-0.45,5.37,-2.12,1.36,-4.74
,,0,2025-11-18T17:40:02.896Z,9.6,9.08,-3.07,-0.54,5.48,-2.74,1.44,-4.52
,,0,2025-11-18T17:40:02.906Z,9.69,9.14,-3.17,-0.52,5.12,-2.5,1.02,-4.34
,,0,2025-11-18T17:40:02.916Z,9.78,9.21,-3.24,-0.48,5.59,-2.37,1.37,-4.88
,,0,2025-11-18T17:40:02.926Z,9.75,9.21,-3.18,-0.47,6.06,-1.69,1.39,-5.65
,,0,2025-11-18T17:40:02.936Z,9.81,9.24,-3.26,-0.52,5.92,-1.84,1.08,-5.53
,,0,2025-11-18T17:40:02.946Z,9.83,9.23,-3.34,-0.51,5.93,-1.53,0.73,-5.69
,,0,2025-11-18T17:40:02.956Z,9.86,9.25,-3.4,-0.44,5.95,-0.81,0.92,-5.82
,,0,2025-11-18T17:40:02.966Z,9.78,9.19,-3.29,-0.52,6.27,-0.37,0.89,-6.19
,,0,2025-11-18T17:40:02.976Z,9.72,9.13,-3.28,-0.45,6.11,-0.81,0.89,-5.99
,,0,2025-11-18T17:40:02.986Z,9.72,9.13,-3.29,-0.46,6.07,-0.86,0.48,-5.98
,,0,2025-11-18T17:40:02.996Z,9.76,9.18,-3.28,-0.47,6.05,-0.85,0.77,-5.94
,,0,2025-11-18T17:40:03.006Z,9.77,9.22,-3.19,-0.45,5.97,-0.6,1.2,-5.82
,,0,2025-11-18T17:40:03.016Z,9.72,9.19,-3.14,-0.4,5.97,-0.53,1.49,-5.76
,,0,2025-11-18T17:40:03.026Z,9.65,9.15,-3.04,-0.51,5.81,-1.29,1.16,-5.54
,,0,2025-11-18T17:40:03.036Z,9.69,9.18,-3.05,-0.52,5.73,-1.92,1.24,-5.25
,,0,2025-11-18T17:40:03.046Z,9.73,9.19,-3.14,-0.53,5.4,-2.05,1.32,-4.82
,,0,2025-11-18T17:40:03.056Z,9.72,9.18,-3.14,-0.56,5.41,-2.08,0.98,-4.9
,,0,2025-11-18T17:40:03.066Z,9.69,9.15,-3.12,-0.65,5.62,-2.32,1.31,-4.95
,,0,2025-11-18T17:40:03.076Z,9.69,9.17,-3.07,-0.59,5.38,-2.45,1.17,-4.64
,,0,2025-11-18T17:40:03.086Z,9.72,9.18,-3.12,-0.57,5.73,-2.44,1.29,-5.02
,,0,2025-11-18T17:40:03.096Z,9.7,9.17,-3.12,-0.62,5.53,-2,0.96,-5.07
,,0,2025-11-18T17:40:03.106Z,9.74,9.19,-3.19,-0.5,5.72,-1.42,0.79,-5.48
,,0,2025-11-18T17:40:03.116Z,9.69,9.17,-3.1,-0.53,5.58,-1.6,0.71,-5.3
,,0,2025-11-18T17:40:03.126Z,9.67,9.15,-3.07,-0.56,5.45,-1.86,0.98,-5.02
,,0,2025-11-18T17:40:03.136Z,9.73,9.21,-3.08,-0.56,5.29,-2.44,0.94,-4.6
,,0,2025-11-18T17:40:03.146Z,9.79,9.23,-3.21,-0.53,5.38,-2.54,0.57,-4.71
,,0,2025-11-18T17:40:03.156Z,9.81,9.23,-3.25,-0.59,5.41,-2.01,0.94,-4.93
,,0,2025-11-18T17:40:03.166Z,9.85,9.29,-3.22,-0.49,5.85,-2.13,1.02,-5.35
,,0,2025-11-18T17:40:03.176Z,9.8,9.22,-3.28,-0.52,5.83,-1.82,0.86,-5.47
,,0,2025-11-18T17:40:03.186Z,9.75,9.16,-3.3,-0.53,5.6,-1.66,0.84,-5.28
,,0,2025-11-18T17:40:03.196Z,9.84,9.27,-3.27,-0.55,5.52,-1.42,1,-5.24
,,0,2025-11-18T17:40:03.206Z,9.82,9.24,-3.28,-0.44,5.43,-1.6,0.88,-5.11
,,0,2025-11-18T17:40:03.216Z,9.82,9.25,-3.28,-0.37,5.42,-1.15,1.29,-5.14
,,0,2025-11-18T17:40:03.226Z,9.83,9.26,-3.25,-0.4,5.44,-1.6,1.44,-5
,,0,2025-11-18T17:40:03.236Z,9.76,9.22,-3.16,-0.44,5.79,-1.62,1.37,-5.39
,,0,2025-11-18T17:40:03.246Z,9.68,9.18,-3.05,-0.44,5.69,-1.82,1.54,-5.17
,,0,2025-11-18T17:40:03.256Z,9.71,9.17,-3.13,-0.52,5.84,-2.11,1.42,-5.26
,,0,2025-11-18T17:40:03.266Z,9.74,9.21,-3.14,-0.43,5.6,-1.63,1.58,-5.11
,,0,2025-11-18T17:40:03.276Z,9.74,9.21,-3.14,-0.51,5.67,-1.92,1.49,-5.12
,,0,2025-11-18T17:40:03.286Z,9.69,9.16,-3.11,-0.51,6.04,-1.86,1.97,-5.4
,,0,2025-11-18T17:40:03.296Z,9.7,9.17,-3.11,-0.54,6.02,-2.18,1.68,-5.36
,,0,2025-11-18T17:40:03.306Z,9.71,9.18,-3.08,-0.62,5.67,-2.47,1.59,-4.85
,,0,2025-11-18T17:40:03.316Z,9.73,9.18,-3.16,-0.61,5.93,-2.46,1.75,-5.11
,,0,2025-11-18T17:40:03.326Z,9.73,9.18,-3.18,-0.64,6.11,-2.37,1.56,-5.4
,,0,2025-11-18T17:40:03.336Z,9.69,9.13,-3.18,-0.64,6.17,-2.18,1.27,-5.63
,,0,2025-11-18T17:40:03.346Z,9.71,9.16,-3.18,-0.61,5.63,-1.78,1.13,-5.22
,,0,2025-11-18T17:40:03.356Z,9.74,9.2,-3.14,-0.61,5.59,-1.7,1.18,-5.19
,,0,2025-11-18T17:40:03.366Z,9.76,9.22,-3.17,-0.54,5.96,-1.7,1,-5.63
,,0,2025-11-18T17:40:03.376Z,9.77,9.24,-3.14,-0.64,5.84,-2.02,1.28,-5.33
,,0,2025-11-18T17:40:03.386Z,9.75,9.22,-3.13,-0.56,5.96,-2.45,0.88,-5.36
,,0,2025-11-18T17:40:03.396Z,9.79,9.26,-3.12,-0.53,6.28,-3.11,1.26,-5.31
,,0,2025-11-18T17:40:03.406Z,9.8,9.24,-3.22,-0.53,6.22,-3.07,1.22,-5.27
,,0,2025-11-18T17:40:03.416Z,9.78,9.22,-3.25,-0.51,6.14,-2.66,1.56,-5.31
,,0,2025-11-18T17:40:03.426Z,9.77,9.24,-3.16,-0.5,5.94,-2.53,1.57,-5.14
,,0,2025-11-18T17:40:03.436Z,9.7,9.16,-3.13,-0.5,6.06,-2.33,1.74,-5.31
,,0,2025-11-18T17:40:03.446Z,9.69,9.15,-3.14,-0.51,6.35,-2.88,1.34,-5.5
,,0,2025-11-18T17:40:03.456Z,9.74,9.18,-3.2,-0.45,6.48,-3.31,1.52,-5.36
,,0,2025-11-18T17:40:03.466Z,9.72,9.16,-3.21,-0.54,6.33,-2.69,1.48,-5.54
,,0,2025-11-18T17:40:03.476Z,9.78,9.25,-3.13,-0.54,6.39,-2.94,2.08,-5.28
,,0,2025-11-18T17:40:03.486Z,9.72,9.17,-3.16,-0.61,6.47,-3.2,1.98,-5.27
,,0,2025-11-18T17:40:03.496Z,9.74,9.19,-3.18,-0.55,6.79,-3.98,1.77,-5.21
,,0,2025-11-18T17:40:03.506Z,9.72,9.14,-3.25,-0.54,6.49,-3.41,1.4,-5.34
,,0,2025-11-18T17:40:03.516Z,9.74,9.18,-3.2,-0.5,6.6,-3.51,1.65,-5.34
,,0,2025-11-18T17:40:03.526Z,9.73,9.18,-3.17,-0.58,6.6,-3.33,1.66,-5.45
,,0,2025-11-18T17:40:03.536Z,9.77,9.23,-3.16,-0.58,6.32,-3.09,1.53,-5.3
,,0,2025-11-18T17:40:03.546Z,9.77,9.21,-3.21,-0.51,6.27,-2.97,1.65,-5.27
,,0,2025-11-18T17:40:03.556Z,9.73,9.18,-3.18,-0.52,6.42,-3.14,1.8,-5.3
,,0,2025-11-18T17:40:03.566Z,9.73,9.18,-3.17,-0.55,6.52,-3.11,1.82,-5.44
,,0,2025-11-18T17:40:03.576Z,9.7,9.16,-3.12,-0.55,6.98,-3.76,1.4,-5.7
,,0,2025-11-18T17:40:03.586Z,9.72,9.18,-3.16,-0.55,6.59,-3.66,1.63,-5.24
,,0,2025-11-18T17:40:03.596Z,9.71,9.16,-3.15,-0.53,6.47,-3.69,1.47,-5.11
,,0,2025-11-18T17:40:03.606Z,9.76,9.19,-3.24,-0.53,6.75,-3.53,1.4,-5.58
,,0,2025-11-18T17:40:03.616Z,9.78,9.21,-3.22,-0.58,6.56,-3.47,1.21,-5.43
,,0,2025-11-18T17:40:03.626Z,9.75,9.22,-3.14,-0.5,6.41,-3.15,1.35,-5.41
,,0,2025-11-18T17:40:03.636Z,9.7,9.18,-3.1,-0.49,6.61,-3.54,1.39,-5.4
,,0,2025-11-18T17:40:03.646Z,9.7,9.18,-3.1,-0.53,6.69,-3.77,1.7,-5.26
,,0,2025-11-18T17:40:03.656Z,9.72,9.19,-3.12,-0.56,6.66,-3.92,1.41,-5.19
,,0,2025-11-18T17:40:03.666Z,9.7,9.18,-3.08,-0.56,6.8,-4.49,1.8,-4.79
,,0,2025-11-18T17:40:03.676Z,9.77,9.22,-3.15,-0.61,7.37,-4.84,1.71,-5.28
,,0,2025-11-18T17:40:03.686Z,9.81,9.23,-3.25,-0.66,6.95,-4.05,1.7,-5.39
,,0,2025-11-18T17:40:03.696Z,9.79,9.19,-3.31,-0.57,6.86,-3.47,1.54,-5.72
,,0,2025-11-18T17:40:03.706Z,9.79,9.21,-3.25,-0.63,6.79,-2.97,1.15,-5.99
,,0,2025-11-18T17:40:03.716Z,9.74,9.15,-3.28,-0.58,6.96,-2.87,1.14,-6.24
,,0,2025-11-18T17:40:03.726Z,9.72,9.16,-3.21,-0.52,6.6,-2.95,0.98,-5.82
,,0,2025-11-18T17:40:03.736Z,9.67,9.09,-3.24,-0.46,6.58,-3.02,1.2,-5.72
,,0,2025-11-18T17:40:03.746Z,9.71,9.14,-3.24,-0.51,6.58,-3.11,1.24,-5.66
,,0,2025-11-18T17:40:03.756Z,9.73,9.17,-3.2,-0.51,6.41,-2.76,1.27,-5.64
,,0,2025-11-18T17:40:03.766Z,9.7,9.17,-3.15,-0.47,6.11,-2.49,1.6,-5.34
,,0,2025-11-18T17:40:03.776Z,9.66,9.13,-3.11,-0.51,6.59,-3.18,1.65,-5.53
,,0,2025-11-18T17:40:03.786Z,9.76,9.23,-3.14,-0.56,6.35,-3.34,1.53,-5.18
,,0,2025-11-18T17:40:03.796Z,9.8,9.26,-3.16,-0.56,6.47,-3.68,1.4,-5.13
,,0,2025-11-18T17:40:03.806Z,9.81,9.24,-3.24,-0.63,6.23,-3.45,1.6,-4.94
,,0,2025-11-18T17:40:03.816Z,9.81,9.26,-3.18,-0.62,6.15,-2.96,1.56,-5.16
,,0,2025-11-18T17:40:03.826Z,9.79,9.24,-3.16,-0.63,5.99,-3.1,0.89,-5.05
,,0,2025-11-18T17:40:03.836Z,9.74,9.2,-3.14,-0.64,5.67,-2.55,1.03,-4.96
,,0,2025-11-18T17:40:03.846Z,9.72,9.18,-3.13,-0.63,5.92,-2.72,1.08,-5.15
,,0,2025-11-18T17:40:03.856Z,9.7,9.17,-3.11,-0.55,5.7,-2.63,1.11,-4.93
,,0,2025-11-18T17:40:03.866Z,9.78,9.25,-3.1,-0.59,5.91,-3.66,1.18,-4.5
,,0,2025-11-18T17:40:03.876Z,9.69,9.18,-3.08,-0.54,6.17,-3.93,1.41,-4.53
,,0,2025-11-18T17:40:03.886Z,9.72,9.2,-3.08,-0.56,6.09,-3.88,1.42,-4.47
,,0,2025-11-18T17:40:03.896Z,9.76,9.24,-3.11,-0.55,6.03,-3.89,1.27,-4.43
,,0,2025-11-18T17:40:03.906Z,9.8,9.26,-3.16,-0.51,5.84,-3.31,1.47,-4.59
,,0,2025-11-18T17:40:03.916Z,9.81,9.26,-3.19,-0.52,6.3,-3.39,1.53,-5.08
,,0,2025-11-18T17:40:03.926Z,9.8,9.22,-3.27,-0.52,6.35,-2.9,1.18,-5.53
,,0,2025-11-18T17:40:03.936Z,9.83,9.25,-3.26,-0.55,6.01,-2.78,1.43,-5.14
,,0,2025-11-18T17:40:03.946Z,9.78,9.21,-3.26,-0.49,6.08,-2.55,1.4,-5.34
,,0,2025-11-18T17:40:03.956Z,9.79,9.21,-3.28,-0.55,6.08,-2.21,1.34,-5.5
,,0,2025-11-18T17:40:03.966Z,9.75,9.17,-3.26,-0.5,6.27,-2.41,1.57,-5.56
,,0,2025-11-18T17:40:03.976Z,9.72,9.15,-3.25,-0.44,6.1,-2.48,1.66,-5.32
,,0,2025-11-18T17:40:03.986Z,9.74,9.17,-3.26,-0.48,6.33,-2.61,1.83,-5.47
,,0,2025-11-18T17:40:03.996Z,9.73,9.16,-3.24,-0.51,6.11,-2.76,1.54,-5.23
,,0,2025-11-18T17:40:04.006Z,9.73,9.17,-3.24,-0.48,6.25,-2.53,1.8,-5.43
,,0,2025-11-18T17:40:04.016Z,9.74,9.15,-3.3,-0.48,6.19,-2.58,1.96,-5.27
,,0,2025-11-18T17:40:04.026Z,9.77,9.21,-3.21,-0.51,6.49,-2.65,2.16,-5.51
,,0,2025-11-18T17:40:04.036Z,9.74,9.18,-3.2,-0.5,6.4,-2.8,2.02,-5.38
,,0,2025-11-18T17:40:04.046Z,9.73,9.15,-3.27,-0.47,6.17,-1.98,1.99,-5.5
,,0,2025-11-18T17:40:04.056Z,9.7,9.14,-3.2,-0.57,6.15,-1.66,1.95,-5.6
,,0,2025-11-18T17:40:04.066Z,9.66,9.11,-3.18,-0.53,6.17,-1.75,1.98,-5.57
,,0,2025-11-18T17:40:04.076Z,9.6,9.05,-3.17,-0.6,6.03,-1.74,1.64,-5.53
,,0,2025-11-18T17:40:04.086Z,9.64,9.08,-3.19,-0.61,5.96,-1.4,1.4,-5.62
,,0,2025-11-18T17:40:04.096Z,9.68,9.15,-3.11,-0.54,6,-2.09,1.47,-5.43
,,0,2025-11-18T17:40:04.106Z,9.7,9.17,-3.13,-0.56,6.25,-2.4,1.63,-5.53
,,0,2025-11-18T17:40:04.116Z,9.71,9.15,-3.19,-0.61,6.04,-2.51,1.18,-5.37
,,0,2025-11-18T17:40:04.126Z,9.75,9.21,-3.16,-0.57,5.91,-1.95,1.23,-5.44
,,0,2025-11-18T17:40:04.136Z,9.73,9.2,-3.12,-0.54,5.98,-1.86,1.06,-5.59
,,0,2025-11-18T17:40:04.146Z,9.75,9.22,-3.14,-0.49,6.08,-1.85,1.12,-5.68
,,0,2025-11-18T17:40:04.156Z,9.71,9.16,-3.19,-0.46,6.32,-1.82,1.15,-5.95
,,0,2025-11-18T17:40:04.166Z,9.72,9.18,-3.18,-0.46,5.81,-1.99,1.05,-5.35
,,0,2025-11-18T17:40:04.176Z,9.77,9.22,-3.18,-0.5,6.14,-2.24,1.45,-5.53
,,0,2025-11-18T17:40:04.186Z,9.81,9.26,-3.24,-0.4,6.04,-2.29,1.45,-5.4
,,0,2025-11-18T17:40:04.196Z,9.81,9.25,-3.23,-0.44,6.07,-2.25,1.64,-5.4
,,0,2025-11-18T17:40:04.206Z,9.8,9.26,-3.19,-0.43,5.97,-2.22,1.62,-5.3
,,0,2025-11-18T17:40:04.216Z,9.79,9.24,-3.22,-0.46,5.69,-2.31,1.63,-4.94
,,0,2025-11-18T17:40:04.226Z,9.69,9.18,-3.08,-0.42,6.06,-2.62,1.61,-5.22
,,0,2025-11-18T17:40:04.236Z,9.72,9.14,-3.27,-0.45,6.28,-3.41,1.36,-5.09
,,0,2025-11-18T17:40:04.246Z,9.83,9.24,-3.32,-0.49,5.65,-2.38,1.35,-4.95
,,0,2025-11-18T17:40:04.256Z,9.86,9.3,-3.21,-0.59,5.99,-1.72,1.62,-5.5
,,0,2025-11-18T17:40:04.266Z,9.73,9.21,-3.09,-0.57,6,-2.33,1.83,-5.22
,,0,2025-11-18T17:40:04.276Z,9.66,9.12,-3.16,-0.55,5.77,-2.96,1.47,-4.73
,,0,2025-11-18T17:40:04.286Z,9.71,9.14,-3.23,-0.5,5.89,-2.74,0.89,-5.14
,,0,2025-11-18T17:40:04.296Z,9.76,9.21,-3.18,-0.54,5.9,-1.98,1.23,-5.42
,,0,2025-11-18T17:40:04.306Z,9.65,9.12,-3.12,-0.51,6.14,-1.58,1.23,-5.81
,,0,2025-11-18T17:40:04.316Z,9.66,9.15,-3.07,-0.47,5.64,-1.69,1.11,-5.26
,,0,2025-11-18T17:40:04.326Z,9.67,9.17,-3.04,-0.53,5.94,-2.17,0.95,-5.44
,,0,2025-11-18T17:40:04.336Z,9.75,9.23,-3.09,-0.54,5.75,-2.2,1.08,-5.2
,,0,2025-11-18T17:40:04.346Z,9.77,9.24,-3.12,-0.52,5.81,-2.73,0.59,-5.1
,,0,2025-11-18T17:40:04.356Z,9.83,9.31,-3.11,-0.51,6.02,-3.18,0.98,-5.02
,,0,2025-11-18T17:40:04.366Z,9.95,9.43,-3.1,-0.59,5.96,-3.29,0.89,-4.89
,,0,2025-11-18T17:40:04.376Z,10.03,9.51,-3.16,-0.54,5.89,-3.44,1.18,-4.63
,,0,2025-11-18T17:40:04.386Z,10.17,9.65,-3.15,-0.56,6.19,-3.76,1.9,-4.54
,,0,2025-11-18T17:40:04.396Z,10.21,9.72,-3.08,-0.49,7.07,-4.66,2.38,-4.76
,,0,2025-11-18T17:40:04.406Z,10.19,9.72,-3.02,-0.5,8.01,-5.95,2.88,-4.52
,,0,2025-11-18T17:40:04.416Z,10.17,9.7,-3.02,-0.38,8.51,-7.01,3.2,-3.61
,,0,2025-11-18T17:40:04.426Z,10.09,9.7,-2.78,-0.33,9.28,-8.18,3.27,-2.92
,,0,2025-11-18T17:40:04.436Z,10.04,9.67,-2.68,-0.17,11.84,-10.88,3.85,-2.64
,,0,2025-11-18T17:40:04.446Z,9.91,9.63,-2.37,-0.14,14.48,-13.64,4.5,-1.85
,,0,2025-11-18T17:40:04.456Z,9.74,9.46,-2.32,-0.17,17.56,-16.89,4.83,-0.14
,,0,2025-11-18T17:40:04.61Z,9.78,9.66,-1.47,-0.56,29.21,-23.58,14.19,9.79
,,0,2025-11-18T17:40:04.62Z,9.85,9.68,-1.74,-0.56,29.82,-24.61,13.92,9.48
,,0,2025-11-18T17:40:04.63Z,10,9.79,-1.95,-0.65,27.36,-21.71,13.56,9.65
,,0,2025-11-18T17:40:04.64Z,10.04,9.77,-2.2,-0.69,24.99,-18.7,13.18,10.06
,,0,2025-11-18T17:40:04.65Z,10.09,9.81,-2.28,-0.55,21.13,-14.3,12.92,8.68
,,0,2025-11-18T17:40:04.66Z,10.11,9.82,-2.37,-0.49,19.09,-11.81,12.9,7.66
,,0,2025-11-18T17:40:04.67Z,10.21,9.95,-2.22,-0.51,18.37,-10.76,13,7.26
,,0,2025-11-18T17:40:04.68Z,10.38,10.12,-2.25,-0.53,19.36,-10.73,14,7.98
,,0,2025-11-18T17:40:04.69Z,10.45,10.21,-2.16,-0.51,23.99,-14.66,16.43,9.53
,,0,2025-11-18T17:40:04.7Z,10.31,10.02,-2.28,-0.72,28.69,-18.52,18.97,10.96
,,0,2025-11-18T17:40:04.71Z,10.27,9.89,-2.66,-0.81,29.18,-19.45,18.54,11.37
,,0,2025-11-18T17:40:04.72Z,10.33,9.81,-3.17,-0.69,27.36,-16.04,18.06,12.85
,,0,2025-11-18T17:40:04.73Z,10.36,9.8,-3.33,-0.53,23.86,-10.25,18,11.85
,,0,2025-11-18T17:40:04.74Z,10.31,9.75,-3.32,-0.55,20.35,-2.3,18.46,8.25
,,0,2025-11-18T17:40:04.75Z,10.25,9.7,-3.25,-0.46,21.08,5.73,19.56,5.36
,,0,2025-11-18T17:40:04.76Z,10.1,9.69,-2.81,-0.38,23.07,7.97,21.22,4.26
,,0,2025-11-18T17:40:04.77Z,10.07,9.87,-1.94,-0.51,31.77,-5.77,30.21,7.98
,,0,2025-11-18T17:40:04.78Z,9.5,9.33,-1.79,-0.31,43.6,-22.91,34.29,14.16
,,0,2025-11-18T17:40:04.79Z,9.39,8.96,-2.8,-0.36,53.22,-37.26,34.43,16.08
,,0,2025-11-18T17:40:04.8Z,9.68,8.77,-4.09,-0.3,57.12,-41.11,35.47,17.73
,,0,2025-11-18T17:40:04.81Z,9.89,8.76,-4.58,-0.44,57.19,-39.69,36.68,18.7
,,0,2025-11-18T17:40:04.82Z,9.74,8.64,-4.47,-0.32,52.86,-32.98,36.98,18.41
,,0,2025-11-18T17:40:04.83Z,9.79,8.54,-4.79,-0.08,45.76,-22.85,36.12,16.34
,,0,2025-11-18T17:40:04.84Z,9.93,8.49,-5.14,-0.23,43.06,-14.39,36.94,16.8
,,0,2025-11-18T17:40:04.85Z,9.63,8.43,-4.65,-0.37,48.74,-14.65,41.35,21.23
,,0,2025-11-18T17:40:04.86Z,9.23,8.08,-4.47,-0.13,48.06,-12.11,41.05,21.86
,,0,2025-11-18T17:40:04.87Z,9.52,8.03,-5.12,-0.1,43.61,-5.98,39.21,18.12
,,0,2025-11-18T17:40:04.88Z,9.89,8.09,-5.69,-0.08,44.35,-3.88,39.84,19.1
,,0,2025-11-18T17:40:04.89Z,9.37,8,-4.88,-0.15,47.89,-7.49,40.56,24.32
,,0,2025-11-18T17:40:04.9Z,9.01,8,-4.13,0.26,52.86,-14.62,41.18,29.76
,,0,2025-11-18T17:40:04.91Z,8.93,7.87,-4.21,0.4,56.87,-21.35,40.49,33.75
,,0,2025-11-18T17:40:04.92Z,9.23,7.84,-4.81,0.67,61.65,-27.35,40.04,38.07
,,0,2025-11-18T17:40:04.93Z,9.39,7.88,-5.02,0.86,63.84,-27.69,39.73,41.6
,,0,2025-11-18T17:40:04.94Z,9.62,8.03,-5.17,1.11,65.25,-27.99,39.88,43.4
,,0,2025-11-18T17:40:04.95Z,9.56,8.02,-5.1,0.98,67.59,-27.9,40.68,46.21
,,0,2025-11-18T17:40:04.96Z,9.56,8.1,-4.96,1.14,74.71,-33.19,43.45,50.92
,,0,2025-11-18T17:40:04.97Z,9.54,8.02,-5.02,1.25,77.7,-34.98,43.79,53.81
,,0,2025-11-18T17:40:04.98Z,9.76,8.01,-5.42,1.29,76.42,-32.78,43.48,53.62
,,0,2025-11-18T17:40:04.99Z,10.03,8.27,-5.5,1.33,81.31,-34.95,45.22,57.84
,,0,2025-11-18T17:40:05Z,9.9,8.27,-5.28,1.35,87.57,-37.6,47.36,63.34
,,0,2025-11-18T17:40:05.01Z,10.07,8.21,-5.65,1.43,89.9,-37.92,49.07,65.08
,,0,2025-11-18T17:40:05.02Z,10.5,8.31,-6.2,1.67,88.79,-31.16,52.1,64.79
,,0,2025-11-18T17:40:05.03Z,10.59,8.4,-6.24,1.64,87.84,-25.13,53.71,64.81
,,0,2025-11-18T17:40:05.04Z,10.55,8.45,-6.06,1.78,90.82,-20.82,57.28,67.33
,,0,2025-11-18T17:40:05.05Z,10.72,8.51,-6.19,2.06,90.25,-13.27,59.38,66.65
,,0,2025-11-18T17:40:05.06Z,11.11,8.63,-6.6,2.28,88.92,-2.28,61.42,64.25
,,0,2025-11-18T17:40:05.07Z,11.11,8.72,-6.53,2.19,88.83,7.92,64.43,60.64
,,0,2025-11-18T17:40:05.08Z,10.76,8.61,-6.07,2.21,91.02,14.09,68.57,58.17
,,0,2025-11-18T17:40:05.09Z,10.41,8.35,-5.71,2.44,91.57,20.94,70.69,54.31
,,0,2025-11-18T17:40:05.1Z,10.37,8.24,-5.73,2.61,91.86,25.91,71.82,51.08
,,0,2025-11-18T17:40:05.11Z,10.09,8.17,-5.27,2.69,91.49,27.15,72.02,49.46
,,0,2025-11-18T17:40:05.12Z,9.81,8.09,-4.87,2.67,91.05,24.77,73.14,48.25
,,0,2025-11-18T17:40:05.13Z,9.51,7.93,-4.49,2.74,89.63,18.64,74.46,46.28
,,0,2025-11-18T17:40:05.14Z,9.16,7.67,-4.16,2.78,88.97,9.84,75.5,46.03
,,0,2025-11-18T17:40:05.15Z,8.97,7.53,-3.89,2.93,89.91,-0.54,76.77,46.8
,,0,2025-11-18T17:40:05.16Z,8.45,7.04,-3.69,2.86,92.78,-12.01,78.46,48.05
,,0,2025-11-18T17:40:05.17Z,8.53,6.6,-4.51,2.97,91.81,-15.96,77.69,46.23
,,0,2025-11-18T17:40:05.18Z,9.04,6.3,-5.74,2.99,84.59,-10.01,72.76,41.97
,,0,2025-11-18T17:40:05.19Z,9.32,6.44,-6.01,3.04,76.17,4.16,67.56,34.95
,,0,2025-11-18T17:40:05.2Z,9.33,6.69,-5.66,3.21,72.6,19.91,64.7,26.23
,,0,2025-11-18T17:40:05.21Z,9.27,6.87,-5.25,3.34,71.31,31.41,61.4,18.14
,,0,2025-11-18T17:40:05.22Z,9.51,7.08,-5.33,3.45,71.38,37.92,59.57,10.4
,,0,2025-11-18T17:40:05.23Z,9.58,7.15,-5.41,3.36,69.81,42.41,55.4,2.44
,,0,2025-11-18T17:40:05.24Z,9.65,7.59,-5.19,2.94,68.05,43.46,51.78,-7.79
,,0,2025-11-18T17:40:05.25Z,9.87,7.98,-5.06,2.84,70.47,42.89,53.35,-16.75
,,0,2025-11-18T17:40:05.26Z,10.3,8.19,-5.44,3.06,73.08,41.63,55.24,-23.61
,,0,2025-11-18T17:40:05.27Z,10.5,8.36,-5.66,2.9,76.3,38.73,57.18,-32.44
,,0,2025-11-18T17:40:05.28Z,10.47,8.27,-5.85,2.66,82.5,37.11,61.67,-40.32
,,0,2025-11-18T17:40:05.29Z,10.48,8.36,-5.52,3.08,89.94,37.08,66.68,-47.63
,,0,2025-11-18T17:40:05.3Z,10.74,8.41,-5.78,3.35,99.55,40.25,72.76,-54.73
,,0,2025-11-18T17:40:05.31Z,11.45,8.43,-6.68,3.93,110.64,44.27,81.54,-60.27
,,0,2025-11-18T17:40:05.32Z,10.33,8.33,-4.1,4.54,115.32,35.27,85.6,-68.76
,,0,2025-11-18T17:40:05.33Z,9.41,7.2,-2.14,5.66,109.32,22.4,89.14,-59.2
,,0,2025-11-18T17:40:05.34Z,10.82,7.52,-3.52,6.93,106.94,23.04,85.14,-60.48
,,0,2025-11-18T17:40:05.35Z,12.9,8.88,-3,8.86,117.03,36.67,74.91,-82.1
,,0,2025-11-18T17:40:05.36Z,14.77,10.88,-4.03,9.13,118.96,24.54,84.44,-80.13
,,0,2025-11-18T17:40:05.37Z,12.03,8.6,-4.93,6.83,126.98,13.66,93.89,-84.39
,,0,2025-11-18T17:40:05.38Z,10.75,7.37,-5.2,5.85,129.43,-2.95,89.05,-93.88
,,0,2025-11-18T17:40:05.39Z,11.36,8,-5.59,5.8,120.03,-19.83,77.94,-89.11
,,0,2025-11-18T17:40:05.4Z,12.14,9.33,-5.48,5.5,113.84,-32.91,71.57,-82.18
,,0,2025-11-18T17:40:05.41Z,12.97,10.13,-5.6,5.85,122.36,-48.18,77.61,-81.4
,,0,2025-11-18T17:40:05.42Z,13.42,9.9,-6.49,6.33,133.27,-59.26,87.33,-81.37
,,0,2025-11-18T17:40:05.43Z,13.48,9.22,-7.19,6.72,136.64,-68.02,89.81,-77.32
,,0,2025-11-18T17:40:05.44Z,13.87,9.19,-7.82,6.84,134.95,-71.23,90.42,-70.45
,,0,2025-11-18T17:40:05.45Z,14.56,9.66,-8.08,7.3,135.56,-73.79,94.23,-63.66
,,0,2025-11-18T17:40:05.46Z,14.38,9.78,-7.7,7.19,137.52,-74.89,100.02,-57.44
,,0,2025-11-18T17:40:05.47Z,13.93,10.03,-6.78,6.89,140.53,-74.41,107.03,-52.5
,,0,2025-11-18T17:40:05.48Z,13.58,10.2,-6.07,6.61,148.11,-75.78,116.98,-50.11
,,0,2025-11-18T17:40:05.49Z,13.32,10.21,-5.68,6.39,162.78,-78.81,131.84,-53.91
,,0,2025-11-18T17:40:05.5Z,13.24,9.95,-6.08,6.27,173.44,-72.21,144.79,-62.46
,,0,2025-11-18T17:40:05.51Z,13.75,9.74,-6.97,6.76,179.84,-51.08,156.73,-71.91
,,0,2025-11-18T17:40:05.52Z,14.25,9.62,-7.81,7.03,183.44,-18.26,162.27,-83.59
,,0,2025-11-18T17:40:05.53Z,14.23,9.7,-7.77,6.94,192.78,15.82,165.84,-97
,,0,2025-11-18T17:40:05.54Z,13.51,9.75,-6.13,7.07,206.14,33.46,171.94,-108.67
,,0,2025-11-18T17:40:05.55Z,12.5,9.48,-3.96,7.13,216.37,35.24,177.39,-118.76
,,0,2025-11-18T17:40:05.56Z,12.74,9.59,-3.2,7.75,223.99,25.74,184.74,-124.01
,,0,2025-11-18T17:40:05.57Z,13.13,9.61,-3.66,8.16,230.98,16.66,193.11,-125.63
,,0,2025-11-18T17:40:05.58Z,13.96,9.76,-4.91,8.68,237.75,21.32,197.5,-130.64
,,0,2025-11-18T17:40:05.59Z,14.48,10.03,-5.48,8.89,244.87,29.14,200.99,-136.79
,,0,2025-11-18T17:40:05.6Z,14.71,10.21,-5,9.34,252.48,37.27,206.72,-140.09
,,0,2025-11-18T17:40:05.61Z,14.27,9.98,-4.53,9.14,258.78,43.91,210.43,-144.08
,,0,2025-11-18T17:40:05.62Z,13.93,9.7,-3.86,9.23,264.59,43.37,216.01,-146.52
,,0,2025-11-18T17:40:05.63Z,13.99,9.41,-3.9,9.59,268.19,42.68,220.25,-146.95
,,0,2025-11-18T17:40:05.64Z,14.1,9.36,-3.81,9.83,267.51,37.61,220.47,-146.78
,,0,2025-11-18T17:40:05.65Z,14.23,9.66,-2.96,10.02,270.35,34.15,223.18,-148.7
,,0,2025-11-18T17:40:05.66Z,13.97,9.53,-2.66,9.87,274.39,34.5,225.53,-152.42
,,0,2025-11-18T17:40:05.67Z,14.04,9.36,-3.1,9.99,275.24,31.45,226.29,-153.49
,,0,2025-11-18T17:40:05.68Z,13.59,8.79,-2.92,9.95,272.49,24.24,222.3,-155.72
,,0,2025-11-18T17:40:05.69Z,13.48,8.61,-2.66,10.02,268.88,13.37,217.85,-157.03
,,0,2025-11-18T17:40:05.7Z,13.36,8.82,-2.46,9.72,265.93,-1.77,213.02,-159.18
,,0,2025-11-18T17:40:05.71Z,12.72,8.67,-1.98,9.1,264.22,-25.6,208.11,-160.77
,,0,2025-11-18T17:40:05.72Z,11.72,8.34,-0.76,8.2,263.37,-59.28,201.98,-158.27
,,0,2025-11-18T17:40:05.73Z,12.03,8.97,-1.05,7.95,268.28,-81.44,203.72,-154.41
,,0,2025-11-18T17:40:05.74Z,12.72,9.44,-3.42,7.81,278.21,-92.27,212.94,-153.44
,,0,2025-11-18T17:40:05.75Z,12.37,8.48,-4.8,7.63,284.77,-86.61,220.71,-157.73
,,0,2025-11-18T17:40:05.76Z,10.28,6.34,-4.17,6.93,277.28,-74.34,215.91,-157.3
,,0,2025-11-18T17:40:05.77Z,8.9,4.79,-4.04,6.32,259.24,-57.98,203.92,-149.21
,,0,2025-11-18T17:40:05.78Z,8.35,4.17,-4,6.03,241.77,-45.85,190.17,-142.08
,,0,2025-11-18T17:40:05.79Z,6.99,3.23,-2.37,5.72,233.08,-37.33,177.83,-145.97
,,0,2025-11-18T17:40:05.8Z,7.45,2.96,-0.94,6.78,227.28,-19.61,166.72,-153.22
,,0,2025-11-18T17:40:05.81Z,8.04,2.93,-1.4,7.36,213.53,-4.63,153.34,-148.53
,,0,2025-11-18T17:40:05.82Z,8.26,3.29,-1.02,7.51,203.52,3.35,140.47,-147.23
,,0,2025-11-18T17:40:05.83Z,8.11,3.58,-0.15,7.27,199.98,1.17,132.75,-149.56
,,0,2025-11-18T17:40:05.84Z,7.44,3.34,0.68,6.62,200.67,-7.21,130.11,-152.6
,,0,2025-11-18T17:40:05.85Z,6.97,3.03,0.39,6.26,198.28,-17.41,127.47,-150.88
,,0,2025-11-18T17:40:05.86Z,6.62,2.74,-1.05,5.94,192.08,-21.6,122.57,-146.3
,,0,2025-11-18T17:40:05.87Z,6.81,2.41,-2.12,6,189.57,-15.55,114.9,-149.98
,,0,2025-11-18T17:40:05.88Z,6.64,2.03,-1.87,6.04,183.06,-4.3,106.73,-148.66
,,0,2025-11-18T17:40:05.89Z,6.18,1.48,-1.85,5.71,174.17,2.83,97.47,-144.31
,,0,2025-11-18T17:40:05.9Z,6.03,0.88,-1.41,5.8,163.74,1.56,92.56,-135.06
,,0,2025-11-18T17:40:05.91Z,6.01,0.58,-1.33,5.84,156.19,-0.77,86.37,-130.13
,,0,2025-11-18T17:40:05.92Z,6.5,0.69,-1.92,6.17,152.01,-7.01,83.92,-126.55
,,0,2025-11-18T17:40:05.93Z,6.85,0.84,-2.34,6.39,149.34,-11.54,80.27,-125.4
,,0,2025-11-18T17:40:05.94Z,6.3,0.89,-2.06,5.89,149.49,-16.69,75.15,-128.15
,,0,2025-11-18T17:40:05.95Z,6.11,1.11,-2.31,5.54,148.64,-22.27,71.57,-128.35
,,0,2025-11-18T17:40:05.96Z,6.4,1.53,-3.11,5.38,151.61,-29.13,68.79,-131.93
,,0,2025-11-18T17:40:05.97Z,6.2,1.77,-3.21,5.01,157.83,-38.76,65.56,-138.24
,,0,2025-11-18T17:40:05.98Z,6.6,2.13,-3.51,5.16,165.89,-49,65.25,-144.44
,,0,2025-11-18T17:40:05.99Z,6.56,2.3,-3.72,4.89,176.66,-63.66,66.21,-150.91
,,0,2025-11-18T17:40:06Z,6.62,2.04,-4.11,4.78,185.93,-75.53,69.98,-154.82
,,0,2025-11-18T17:40:06.01Z,7.05,1.73,-4.84,4.83,193.28,-85.35,73.12,-157.24
,,0,2025-11-18T17:40:06.02Z,7.49,1.44,-5.56,4.81,197.27,-94.51,71.41,-157.75
,,0,2025-11-18T17:40:06.03Z,7.79,1.37,-6.04,4.73,200.41,-99.24,71.47,-158.77
,,0,2025-11-18T17:40:06.04Z,7.53,1.32,-5.91,4.47,203.87,-101.94,70.96,-161.67
,,0,2025-11-18T17:40:06.05Z,7.52,1.19,-6.01,4.37,207.14,-109.4,70.08,-161.33
,,0,2025-11-18T17:40:06.06Z,7.37,1.09,-5.86,4.34,213.3,-121.03,70.49,-160.88
,,0,2025-11-18T17:40:06.07Z,7.24,0.58,-5.98,4.03,217.58,-132.25,68.02,-158.82
,,0,2025-11-18T17:40:06.08Z,7.8,0.29,-6.72,3.95,218.99,-137.43,65.79,-157.29
,,0,2025-11-18T17:40:06.09Z,8.3,0.08,-7.36,3.85,222.04,-142.06,64.26,-158.09
,,0,2025-11-18T17:40:06.1Z,8.25,-0.4,-7.36,3.71,225.12,-149.57,62.37,-156.26
,,0,2025-11-18T17:40:06.11Z,8.53,-1.08,-7.72,3.46,226.34,-156.11,59.96,-152.53
,,0,2025-11-18T17:40:06.12Z,8.5,-1.27,-7.85,3.02,228.53,-163.27,58.92,-148.64
,,0,2025-11-18T17:40:06.13Z,8.79,-1.54,-8.25,2.61,229,-166.63,56.57,-146.54
,,0,2025-11-18T17:40:06.14Z,9.11,-1.68,-8.79,1.71,224.33,-162.26,50.62,-146.4
,,0,2025-11-18T17:40:06.15Z,9.13,-1.93,-8.84,1.21,220.02,-157.95,46.02,-146.09
,,0,2025-11-18T17:40:06.16Z,9.37,-2.37,-9.05,0.51,216.67,-154.51,39.53,-146.66
,,0,2025-11-18T17:40:06.17Z,10.22,-2.56,-9.9,-0.15,210.03,-145.61,32.95,-147.73
,,0,2025-11-18T17:40:06.18Z,11.07,-2.83,-10.64,-1.21,206.76,-138.08,26.02,-151.68
,,0,2025-11-18T17:40:06.19Z,10.67,-2.94,-10.05,-2.03,211.8,-141.82,25.53,-155.23
,,0,2025-11-18T17:40:06.2Z,10.69,-3.42,-9.76,-2.71,215.43,-146.88,23.92,-155.77
,,0,2025-11-18T17:40:06.21Z,11.41,-3.59,-10.1,-3.92,219.11,-155.64,21.17,-152.76
,,0,2025-11-18T17:40:06.22Z,12.49,-3.44,-10.81,-5.22,224.87,-165.86,19.68,-150.56
,,0,2025-11-18T17:40:06.23Z,14.14,-3.14,-12.2,-6.43,226.81,-169.1,15.4,-150.37
,,0,2025-11-18T17:40:06.24Z,15.38,-2.95,-13.17,-7.39,223.63,-165.53,10.68,-149.98
,,0,2025-11-18T17:40:06.25Z,16.58,-3.27,-13.59,-8.92,217.86,-158.32,2.37,-149.63
,,0,2025-11-18T17:40:06.26Z,17.68,-2.85,-13.91,-10.53,212.12,-156.86,-9.23,-142.5
,,0,2025-11-18T17:40:06.27Z,18.27,-1.85,-13.39,-12.28,214.93,-168.03,-22.37,-132.14
,,0,2025-11-18T17:40:06.28Z,20.72,-0.95,-15.04,-14.22,210.54,-163.34,-43.79,-125.43
,,0,2025-11-18T17:40:06.29Z,20.9,0.49,-14.81,-14.74,232.8,-194.54,-52.59,-116.56
,,0,2025-11-18T17:40:06.3Z,20.65,0.56,-13.25,-15.82,242.13,-209.37,-68.08,-100.77
,,0,2025-11-18T17:40:06.31Z,22.08,0.97,-13.2,-17.67,255.21,-224.82,-85.4,-85.41
,,0,2025-11-18T17:40:06.32Z,23.32,2.55,-12.35,-19.62,275.64,-250.14,-94.95,-66.27
,,0,2025-11-18T17:40:06.33Z,22.53,3.03,-10.66,-19.62,279.11,-250.14,-114.64,-46.81
,,0,2025-11-18T17:40:06.34Z,22.02,3.31,-9.43,-19.62,290.18,-250.14,-143.14,-33.86
,,0,2025-11-18T17:40:06.35Z,21.84,5.32,-7.98,-19.62,305.19,-250.14,-173.47,-22
,,0,2025-11-18T17:40:06.36Z,22.15,7.83,-6.68,-19.62,330.49,-250.14,-215.25,-18.02
,,0,2025-11-18T17:40:06.37Z,23.14,11.04,-5.36,-19.62,354.01,-250.14,-250.14,-13.53
,,0,2025-11-18T17:40:06.38Z,25.11,15.32,-3.3,-19.62,354.69,-250.14,-250.14,-25.9
,,0,2025-11-18T17:40:06.39Z,27.8,19.62,-1.68,-19.62,356.35,-250.14,-250.14,-43.02
,,0,2025-11-18T17:40:06.4Z,27.75,19.62,-0.59,-19.62,360.75,-250.14,-250.14,-70.71
,,0,2025-11-18T17:40:06.41Z,27.75,19.62,0.32,-19.62,367.64,-250.14,-250.14,-100.11
,,0,2025-11-18T17:40:06.42Z,27.79,19.62,1.56,-19.62,374.39,-250.14,-250.14,-122.61
,,0,2025-11-18T17:40:06.43Z,27.76,19.62,-0.97,-19.62,416.56,-250.14,-250.14,-219.96
,,0,2025-11-18T17:40:06.44Z,27.95,19.62,-3.33,-19.62,433.25,-250.14,-250.14,-250.14
,,0,2025-11-18T17:40:06.45Z,28.02,19.62,-3.94,-19.62,433.25,-250.14,-250.14,-250.14
,,0,2025-11-18T17:40:06.46Z,28.4,19.62,-6.07,-19.62,401.3,-189.48,-250.14,-250.14
,,0,2025-11-18T17:40:06.47Z,29.16,19.62,-8.98,-19.62,366.4,-95.45,-250.14,-250.14
,,0,2025-11-18T17:40:06.48Z,28.29,19.62,-10.91,-17.22,353.92,11.06,-250.14,-250.14
,,0,2025-11-18T17:40:06.49Z,28.94,19.62,-15.11,-14.96,378,133.22,-250.14,-250.14
,,0,2025-11-18T17:40:06.5Z,30.73,19.62,-19.62,-13.22,433.25,250.13,-250.14,-250.14
,,0,2025-11-18T17:40:06.51Z,31.34,19.62,-19.62,-14.57,433.25,250.13,-250.14,-250.14
,,0,2025-11-18T17:40:06.52Z,33.94,19.62,-19.62,-19.55,433.25,250.13,-250.14,-250.14
,,0,2025-11-18T17:40:06.53Z,33.98,19.62,-19.62,-19.62,433.25,250.13,-250.14,-250.14
,,0,2025-11-18T17:40:06.54Z,33.98,19.62,-19.62,-19.62,433.25,250.13,-250.14,-250.14
,,0,2025-11-18T17:40:06.55Z,33.98,19.62,-19.62,-19.62,433.25,250.13,-250.14,-250.14
,,0,2025-11-18T17:40:06.56Z,33.98,19.62,-19.62,-19.62,432.21,250.13,-250.14,-248.34
,,0,2025-11-18T17:40:06.57Z,33.98,19.62,-19.62,-19.62,361.24,250.13,-250.14,-73.21
,,0,2025-11-18T17:40:06.58Z,33.98,19.62,-19.62,-19.62,364.6,250.13,-250.14,88.31
,,0,2025-11-18T17:40:06.59Z,32.54,19.62,-19.62,-16.99,411.73,250.13,-250.14,210.68
,,0,2025-11-18T17:40:06.6Z,33.98,19.62,-19.62,-19.62,433.24,250.13,-250.14,250.13
,,0,2025-11-18T17:40:06.61Z,33.98,19.62,-19.62,-19.62,426.03,250.13,-237.42,250.13
,,0,2025-11-18T17:40:06.781Z,20.96,15.44,13.57,-4.08,242.47,5.9,181.15,161.07
,,0,2025-11-18T17:40:06.79Z,19.78,13.2,14.32,-3.45,228.2,-34.24,192.26,118.05
,,0,2025-11-18T17:40:06.8Z,17.95,10.05,14.7,-2.28,213.16,-84.63,182.98,69.21
,,0,2025-11-18T17:40:06.81Z,14.37,6.91,12.57,-0.87,204.61,-117.76,162.56,39.64
,,0,2025-11-18T17:40:06.82Z,17.7,5.98,16.43,-2.79,254.66,-182.57,162.79,70.82
,,0,2025-11-18T17:40:06.83Z,9.39,0.98,8.7,3.4,212.46,-134.49,101.5,129.41
,,0,2025-11-18T17:40:06.84Z,7.27,-3.2,4.73,4.5,215.35,-101.63,19.07,188.89
,,0,2025-11-18T17:40:06.85Z,7.68,-1.22,5.64,5.08,192.49,-66.21,-57.02,171.51
,,0,2025-11-18T17:40:06.86Z,8.78,0.33,6.71,5.66,154.54,-76.34,-80.31,107.73
,,0,2025-11-18T17:40:06.87Z,20.58,16.54,-2.17,12.06,76.73,-45.52,-49.7,-36.67
,,0,2025-11-18T17:40:06.88Z,19.32,13.8,10.46,8.56,203.7,-166.73,-38.16,-110.63
,,0,2025-11-18T17:40:06.89Z,13.31,11.39,-1.21,6.78,197.25,-157.5,12.1,-118.13
,,0,2025-11-18T17:40:06.9Z,7.06,1.74,-0.42,6.83,162.87,-134.18,66.87,-63.63
,,0,2025-11-18T17:40:06.91Z,11.36,0.71,6.35,9.39,132.69,-123.29,26.97,-40.98
,,0,2025-11-18T17:40:06.92Z,11.1,3.91,4.46,9.38,207.98,-151.8,12.4,-141.63
,,0,2025-11-18T17:40:06.93Z,11.78,8.98,1.88,7.39,320.31,-184.4,77.6,-250.14
,,0,2025-11-18T17:40:06.94Z,9.24,4.66,-0.18,7.98,331.34,-196.79,92.15,-250.14
,,0,2025-11-18T17:40:06.95Z,9.94,-3.04,-0.7,9.44,226.63,-169.26,38.82,-145.62
,,0,2025-11-18T17:40:06.96Z,10.38,-3.51,-2.15,9.52,200.54,-164.58,-13.33,-113.81
,,0,2025-11-18T17:40:06.97Z,9.47,-0.38,-3.98,8.58,189.76,-143.99,-52.46,-111.91
,,0,2025-11-18T17:40:06.98Z,9.84,4.35,-3.9,7.92,188.85,-129.55,-62.06,-122.59
,,0,2025-11-18T17:40:06.99Z,10.68,7.42,-2.01,7.42,196.69,-132.36,-45.09,-138.34
,,0,2025-11-18T17:40:07Z,10.93,7.9,-1.34,7.44,218.93,-149.26,-11.91,-159.73
,,0,2025-11-18T17:40:07.01Z,10.71,6.19,-3.24,8.11,239.13,-161.98,12.92,-175.43
,,0,2025-11-18T17:40:07.02Z,10.88,4.01,-5.1,8.74,243.41,-164.5,16.58,-178.63
,,0,2025-11-18T17:40:07.03Z,10.58,2.77,-5.23,8.76,240.07,-160.43,5.48,-178.51
,,0,2025-11-18T17:40:07.04Z,10.45,3.24,-5.89,8,239.28,-161.94,-7.83,-175.98
,,0,2025-11-18T17:40:07.05Z,10.87,4.52,-6.61,7.35,239.69,-163.6,-13.76,-174.63
,,0,2025-11-18T17:40:07.06Z,11.45,5.66,-6.81,7.25,245.46,-165.46,-12.63,-180.87
,,0,2025-11-18T17:40:07.07Z,11.49,5.85,-6.88,7.11,252.84,-169.87,-4.95,-187.21
,,0,2025-11-18T17:40:07.08Z,11.75,5.11,-7.6,7.35,259.55,-172.89,5.37,-193.5
,,0,2025-11-18T17:40:07.09Z,11.99,3.85,-8.62,7.4,263.73,-169.63,8.03,-201.78
,,0,2025-11-18T17:40:07.1Z,11.51,2.91,-8.37,7.35,265.57,-164.37,1.21,-208.6
,,0,2025-11-18T17:40:07.11Z,11.27,3.07,-8.12,7.19,263.57,-160.26,-8.45,-209.08
,,0,2025-11-18T17:40:07.12Z,11.62,4.31,-7.96,7.28,263.55,-167.33,-13.54,-203.17
,,0,2025-11-18T17:40:07.13Z,11.99,5.49,-8.07,6.97,268.85,-177.08,-9.75,-202.06
,,0,2025-11-18T17:40:07.14Z,12.42,5.67,-8.93,6.51,279.08,-181.88,4.64,-211.62
,,0,2025-11-18T17:40:07.15Z,12.73,4.57,-9.75,6.78,286.31,-176.5,21.31,-224.44
,,0,2025-11-18T17:40:07.16Z,12.81,2.61,-10.49,6.88,286.65,-161.79,23.98,-235.4
,,0,2025-11-18T17:40:07.17Z,13.22,1.52,-11.18,6.9,281.18,-149.84,14.4,-237.49
,,0,2025-11-18T17:40:07.18Z,13.22,1.86,-11.24,6.7,271.05,-140.06,1.86,-232.05
,,0,2025-11-18T17:40:07.19Z,13.51,3.36,-11.37,6.48,265.5,-146.85,-6.93,-221.08
,,0,2025-11-18T17:40:07.2Z,13.7,4.91,-10.93,6.64,264.43,-159.85,2.44,-210.63
,,0,2025-11-18T17:40:07.21Z,14.38,4.75,-11.78,6.75,263.78,-154.23,23.08,-212.74
,,0,2025-11-18T17:40:07.22Z,15.82,3.55,-13.53,7.38,266.31,-141.12,38.18,-222.59
,,0,2025-11-18T17:40:07.23Z,16.55,2.01,-14.09,8.45,264.45,-126.63,45.17,-227.73
,,0,2025-11-18T17:40:07.24Z,16.15,0.31,-13.29,9.17,254.41,-107.48,39.48,-227.18
,,0,2025-11-18T17:40:07.25Z,15.63,0.06,-12.13,9.86,242.09,-96.53,28.71,-220.15
,,0,2025-11-18T17:40:07.26Z,13.83,0.26,-10.06,9.49,231.33,-107.08,20.67,-204.01
,,0,2025-11-18T17:40:07.27Z,12.51,0.75,-8.5,9.14,226.77,-131.72,26.61,-182.66
,,0,2025-11-18T17:40:07.28Z,12.54,0.79,-8.54,9.14,230.48,-157.5,40.07,-163.43
,,0,2025-11-18T17:40:07.29Z,14.06,0.53,-10.78,9.01,233.15,-159.92,52.58,-161.31
,,0,2025-11-18T17:40:07.3Z,15.69,-0.03,-13.02,8.75,229.55,-145.04,57.92,-168.24
,,0,2025-11-18T17:40:07.31Z,16.4,-0.79,-13.61,9.12,215.21,-124.1,57.27,-166.24
,,0,2025-11-18T17:40:07.32Z,16.41,-1.43,-13.24,9.59,197.16,-103.53,52.42,-159.39
,,0,2025-11-18T17:40:07.33Z,16.29,-1.51,-12.88,9.85,174.39,-79.84,43.02,-148.95
,,0,2025-11-18T17:40:07.34Z,16.11,-1.08,-12.52,10.09,154.29,-68.02,37.34,-133.36
,,0,2025-11-18T17:40:07.35Z,15.43,-1.56,-11.32,10.36,132.51,-60.36,34.38,-112.84
,,0,2025-11-18T17:40:07.36Z,14.24,-2.12,-9.7,10.2,114.59,-62.21,23.23,-93.38
,,0,2025-11-18T17:40:07.37Z,13.53,-1.78,-8.57,10.31,102.02,-72.84,13.75,-70.09
,,0,2025-11-18T17:40:07.38Z,13.76,-0.67,-9.41,10.02,89.31,-71.5,13.53,-51.78
,,0,2025-11-18T17:40:07.39Z,15,0.52,-11.56,9.56,78.06,-60.27,11.44,-48.27
,,0,2025-11-18T17:40:07.4Z,15.86,0.85,-12.89,9.21,67.64,-44.75,4.32,-50.53
,,0,2025-11-18T17:40:07.41Z,15.75,0.82,-12.96,8.9,54.77,-31.27,-3.25,-44.85
,,0,2025-11-18T17:40:07.42Z,15.34,1.19,-12.63,8.62,44.3,-22.56,-12.35,-36.06
,,0,2025-11-18T17:40:07.43Z,14.77,1.95,-12.23,8.04,40.46,-22.65,-19.47,-27.29
,,0,2025-11-18T17:40:07.44Z,14.03,2.61,-11.63,7.41,45.86,-31.51,-25.28,-21.71
,,0,2025-11-18T17:40:07.45Z,14.13,3.33,-11.84,6.96,51.38,-38.4,-26.4,-21.64
,,0,2025-11-18T17:40:07.46Z,15.24,3.67,-13.26,6.54,53.83,-33.09,-30.14,-29.91
,,0,2025-11-18T17:40:07.47Z,16.33,4.48,-14.29,6.5,53.82,-19.23,-30.5,-39.95
,,0,2025-11-18T17:40:07.48Z,16.27,4.9,-14.25,6.15,60.48,-4.14,-31.51,-51.46
,,0,2025-11-18T17:40:07.49Z,15.21,5.04,-13.17,5.72,70.38,1.44,-33.24,-62.02
,,0,2025-11-18T17:40:07.5Z,13.88,4.94,-11.75,5.47,76.84,-4.6,-35.11,-68.19
,,0,2025-11-18T17:40:07.51Z,12.55,4.63,-10.59,4.89,83.22,-21.42,-39.06,-70.3
,,0,2025-11-18T17:40:07.52Z,12.5,5.04,-10.34,4.9,90.14,-35.86,-39.68,-72.56
,,0,2025-11-18T17:40:07.53Z,12.54,5.1,-10.33,4.95,96.57,-46.78,-40.79,-73.99
,,0,2025-11-18T17:40:07.54Z,12,4.91,-9.77,4.94,98.78,-55.05,-40.74,-71.19
,,0,2025-11-18T17:40:07.55Z,11,4.28,-8.89,4.85,96.03,-59.12,-40.75,-63.77
,,0,2025-11-18T17:40:07.56Z,10.12,3.78,-8.13,4.71,90.6,-61.62,-38.6,-54.05
,,0,2025-11-18T17:40:07.57Z,9.68,3.41,-7.71,4.75,78.24,-53.11,-32.89,-47.1
,,0,2025-11-18T17:40:07.58Z,10.52,3.66,-8.07,5.67,60.72,-25.07,-24.02,-49.81
,,0,2025-11-18T17:40:07.59Z,10.23,2.85,-8.89,4.17,68.89,19.34,-18.45,-63.5
,,0,2025-11-18T17:40:07.6Z,8.59,1.6,-7.41,4.04,81.04,39.9,-15.95,-68.71
,,0,2025-11-18T17:40:07.61Z,5.81,0.51,-4.16,4.04,77.15,41.65,-15.41,-63.08
,,0,2025-11-18T17:40:07.62Z,4.48,-0.02,-2,4,66.78,34.02,-16.55,-55.03
,,0,2025-11-18T17:40:07.63Z,4.07,0.1,-1.33,3.85,56.21,25.27,-15.33,-47.81
,,0,2025-11-18T17:40:07.64Z,4,0.35,-1.31,3.77,47.52,16.74,-9.93,-43.35
,,0,2025-11-18T17:40:07.65Z,4.13,0.4,-1.43,3.86,43.08,10.66,-3.49,-41.6
,,0,2025-11-18T17:40:07.66Z,4.54,0.3,-1.48,4.28,37.63,7.52,2.06,-36.82
,,0,2025-11-18T17:40:07.67Z,4.33,0.29,-1.38,4.1,31.34,8.57,7.11,-29.3
,,0,2025-11-18T17:40:07.68Z,5.1,0.46,-1.2,4.93,27.16,11.82,11.33,-21.67
,,0,2025-11-18T17:40:07.69Z,4.88,1.02,-1.25,4.6,26.69,14.63,17.93,-13.3
,,0,2025-11-18T17:40:07.7Z,4.11,0.6,-0.52,4.04,33.39,21.67,21.97,-12.76
,,0,2025-11-18T17:40:07.71Z,4.55,0.41,-0.9,4.44,38.03,26.66,26.31,-6.62
,,0,2025-11-18T17:40:07.72Z,4.76,0.69,-1.52,4.45,37.34,24.71,27.98,-0.71
,,0,2025-11-18T17:40:07.73Z,5.21,1.36,-2.21,4.52,38.31,22.79,30.76,-1.32
,,0,2025-11-18T17:40:07.74Z,6.41,1.72,-3.35,5.19,54.8,36.11,40.65,-6.79
,,0,2025-11-18T17:40:07.75Z,8.18,1.69,-5.35,5.95,70.31,52.51,44.24,-15.14
,,0,2025-11-18T17:40:07.76Z,9.49,1.46,-6.58,6.68,84.55,70.15,41.37,-22.73
,,0,2025-11-18T17:40:07.77Z,10.53,2.01,-7.36,7.26,90.86,81.04,29.15,-28.95
,,0,2025-11-18T17:40:07.78Z,11.67,3.45,-7.75,8.02,88.38,79.89,21.07,-31.38
,,0,2025-11-18T17:40:07.79Z,13.01,4.66,-8.31,8.85,83.93,72.78,18.8,-37.34
,,0,2025-11-18T17:40:07.8Z,15.16,5.35,-9.93,10.13,80.86,64.94,16.86,-45.14
,,0,2025-11-18T17:40:07.81Z,15.91,5.3,-10.52,10.7,77.86,63.75,12.45,-42.93
,,0,2025-11-18T17:40:07.82Z,17.33,6.92,-11.15,11.32,70.76,41.22,11.29,-56.4
,,0,2025-11-18T17:40:07.83Z,19.17,8.07,-12.66,11.92,46.52,20.25,8.45,-41.02
,,0,2025-11-18T17:40:07.84Z,20.59,9.21,-14.05,11.91,39.62,1.75,0.98,-39.56
,,0,2025-11-18T17:40:07.85Z,21.6,10.43,-14.89,11.67,45.77,-0.78,3.37,-45.64
,,0,2025-11-18T17:40:07.86Z,21.59,10.31,-14.94,11.7,53.37,1.92,6.56,-52.93
,,0,2025-11-18T17:40:07.87Z,20.02,9.02,-13.71,11.46,51.88,9.68,8.34,-50.28
,,0,2025-11-18T17:40:07.88Z,17.75,7.62,-11.71,10.95,41.88,12.24,7.85,-39.27
,,0,2025-11-18T17:40:07.89Z,15.86,6.59,-10.1,10.31,32.92,9.37,7.6,-30.63
,,0,2025-11-18T17:40:07.9Z,14.65,6.04,-9.13,9.73,24.59,7.15,6.15,-22.71
,,0,2025-11-18T17:40:07.91Z,13.13,5.56,-7.83,8.95,22.04,6.9,4.03,-20.54
,,0,2025-11-18T17:40:07.92Z,12.48,5.31,-7.26,8.65,28.7,15.14,3.66,-24.11
,,0,2025-11-18T17:40:07.93Z,12.2,4.82,-7.65,8.19,38.3,28.82,3.82,-24.93
,,0,2025-11-18T17:40:07.94Z,11.85,3.77,-7.71,8.17,46.66,44.4,-3.12,-14
,,0,2025-11-18T17:40:07.95Z,9.86,3.48,-4.91,7.81,47.59,46.56,-9.67,1.71
,,0,2025-11-18T17:40:07.96Z,8.7,3.93,-2.92,7.19,37.69,36.05,-10.34,-3.76
,,0,2025-11-18T17:40:07.97Z,7.58,3.4,-1.4,6.63,28.65,23.07,-3,16.72
,,0,2025-11-18T17:40:07.98Z,7.36,2.86,-1.87,6.52,28.85,8.86,1.02,27.44
,,0,2025-11-18T17:40:07.99Z,7.04,2.39,-2.19,6.25,31.32,-0.01,1.65,31.27
,,0,2025-11-18T17:40:08Z,7.07,2.3,-2.68,6.12,19.84,3.56,0.24,19.52
,,0,2025-11-18T17:40:08.01Z,6.67,2.26,-2.6,5.71,11.11,10.87,2.18,-0.65
,,0,2025-11-18T17:40:08.02Z,6.69,2.1,-2.89,5.65,26.65,18.53,4.77,-18.56
,,0,2025-11-18T17:40:08.03Z,6.54,1.37,-3.57,5.31,32.71,23.51,2.94,-22.56
,,0,2025-11-18T17:40:08.04Z,6.55,0.89,-3.42,5.51,31.88,27.84,-1.11,-15.5
,,0,2025-11-18T17:40:08.05Z,6.68,0.99,-3.14,5.81,31.83,29.52,-5.44,-10.59
,,0,2025-11-18T17:40:08.06Z,6.87,1.83,-2.44,6.16,27.67,22.98,-5.44,-14.41
,,0,2025-11-18T17:40:08.07Z,7.28,2.51,-2.57,6.33,29.57,16.07,-1.77,-24.76
,,0,2025-11-18T17:40:08.08Z,8.43,3.05,-4.38,6.52,41.22,14.25,2.25,-38.61
,,0,2025-11-18T17:40:08.09Z,9.98,3.65,-5.75,7.3,51.56,14.87,7.34,-48.82
,,0,2025-11-18T17:40:08.1Z,11.05,3.88,-6.84,7.76,60.03,19.74,8.3,-56.08
,,0,2025-11-18T17:40:08.11Z,11.79,4.59,-7.09,8.22,64.29,20.47,9.43,-60.21
,,0,2025-11-18T17:40:08.12Z,11.84,5.22,-6.09,8.71,64.89,16.34,13.45,-61.34
,,0,2025-11-18T17:40:08.13Z,11.69,5.45,-5.04,9.02,63.54,6.53,19.95,-59.97
,,0,2025-11-18T17:40:08.14Z,11.7,5.53,-4.55,9.26,65.42,-6.21,26.8,-59.36
,,0,2025-11-18T17:40:08.15Z,11.76,5.66,-4.73,9.16,72.39,-16.19,34.4,-61.6
,,0,2025-11-18T17:40:08.16Z,11.91,5.59,-5.17,9.16,81.01,-24.65,41.87,-64.82
,,0,2025-11-18T17:40:08.17Z,11.66,5.28,-5.37,8.9,87.44,-29.35,47.12,-67.55
,,0,2025-11-18T17:40:08.18Z,11.46,5.15,-5.27,8.77,90.54,-30.27,50.01,-69.15
,,0,2025-11-18T17:40:08.19Z,11.5,5.18,-5.6,8.61,91.79,-24.51,51.92,-71.62
,,0,2025-11-18T17:40:08.2Z,11.66,5.25,-6.2,8.36,95.52,-14.21,54.25,-77.32
,,0,2025-11-18T17:40:08.21Z,11.78,5.2,-6.7,8.17,99.82,-2.15,56.68,-82.14
,,0,2025-11-18T17:40:08.22Z,11.02,4.96,-5.74,8,100.33,4.15,57.44,-82.16
,,0,2025-11-18T17:40:08.23Z,10.13,4.7,-4.34,7.85,100.57,4.06,58.02,-82.04
,,0,2025-11-18T17:40:08.24Z,9.73,4.82,-3.48,7.7,102.7,-1.79,60.1,-83.26
,,0,2025-11-18T17:40:08.25Z,10.09,5.13,-3.48,7.97,108.8,-9.37,63.75,-87.66
,,0,2025-11-18T17:40:08.26Z,10.83,5.33,-4.04,8.52,115.38,-12.46,69,-91.63
,,0,2025-11-18T17:40:08.27Z,11.58,5.31,-4.88,9.06,120.87,-4.06,69.34,-98.92
,,0,2025-11-18T17:40:08.28Z,11.95,5.26,-5.73,9.06,130.45,13.28,71.09,-108.56
,,0,2025-11-18T17:40:08.29Z,11.9,5.23,-5.27,9.3,136.13,25.31,70.08,-113.92
,,0,2025-11-18T17:40:08.3Z,11.48,5.23,-3.81,9.49,138.92,28.5,68.27,-117.58
,,0,2025-11-18T17:40:08.31Z,11.42,5.42,-2.89,9.62,140.6,24.03,69.46,-119.85
,,0,2025-11-18T17:40:08.32Z,11.76,5.83,-2.92,9.78,142.46,14.5,70.84,-122.75
,,0,2025-11-18T17:40:08.33Z,12.2,6.05,-2.95,10.17,145.06,1.94,71.47,-126.21
,,0,2025-11-18T17:40:08.34Z,13.2,6.53,-3.08,11.05,147.92,-10.45,74.03,-127.63
,,0,2025-11-18T17:40:08.35Z,14.45,7.11,-3.5,12.08,152.88,-20.8,77.11,-130.35
,,0,2025-11-18T17:40:08.36Z,15.7,7.75,-4.59,12.86,160.76,-12.51,81.5,-138.01
,,0,2025-11-18T17:40:08.37Z,16.08,8.27,-4.45,13.06,172.34,-4.91,84.8,-149.95
,,0,2025-11-18T17:40:08.38Z,15.77,7.99,-3.19,13.21,178.05,-4.53,87.44,-155.04
,,0,2025-11-18T17:40:08.39Z,15.55,7.85,-1.96,13.28,181.27,-14.47,90.56,-156.37
,,0,2025-11-18T17:40:08.4Z,15.73,8.14,-0.82,13.44,187.18,-26.83,96.88,-157.89
,,0,2025-11-18T17:40:08.41Z,16.19,8.61,-0.48,13.7,195.78,-41.25,104.88,-160.08
,,0,2025-11-18T17:40:08.42Z,16.64,8.7,-0.72,14.17,203.92,-52.66,113.68,-160.89
,,0,2025-11-18T17:40:08.43Z,16.87,8.63,-1.33,14.43,208.75,-55.53,119.53,-161.88
,,0,2025-11-18T17:40:08.44Z,16.42,8.21,-1.64,14.12,210.46,-51.97,124.45,-161.56
,,0,2025-11-18T17:40:08.45Z,15.9,7.41,-0.96,14.03,210.36,-46.27,126.02,-161.95
,,0,2025-11-18T17:40:08.46Z,15.59,6.95,0.06,13.95,211.9,-41.66,128.54,-163.23
,,0,2025-11-18T17:40:08.47Z,14.97,6.67,-0.01,13.4,212.03,-30.76,128.76,-165.62
,,0,2025-11-18T17:40:08.48Z,14.74,6.46,-0.64,13.23,214.51,-21.62,131.31,-168.24
,,0,2025-11-18T17:40:08.49Z,14.89,6.17,-1.06,13.51,212.52,-16.49,130.62,-166.82
,,0,2025-11-18T17:40:08.5Z,14.23,5.68,-0.66,13.03,207.85,-16.3,126.79,-163.89
,,0,2025-11-18T17:40:08.51Z,13.64,5.44,0.14,12.5,205.36,-22.22,123.82,-162.32
,,0,2025-11-18T17:40:08.52Z,12.89,5.14,0.69,11.8,201.46,-34.05,121.5,-157.05
,,0,2025-11-18T17:40:08.53Z,12.24,4.93,0.52,11.19,201.34,-45.44,120.05,-155.12
,,0,2025-11-18T17:40:08.54Z,11.67,4.93,-0.26,10.57,202.25,-53.48,119.53,-154.14
,,0,2025-11-18T17:40:08.55Z,10.97,4.68,-1.04,9.87,199.62,-54.02,118.08,-151.62
,,0,2025-11-18T17:40:08.56Z,9.87,3.89,-0.62,9.06,195.42,-57.29,112.83,-148.92
,,0,2025-11-18T17:40:08.57Z,9.96,3.85,-0.91,9.14,192.72,-54.81,112.83,-146.31
,,0,2025-11-18T17:40:08.58Z,10.41,4.12,-2.25,9.29,191.99,-49.5,117.21,-143.77
,,0,2025-11-18T17:40:08.59Z,10.3,3.73,-1.68,9.46,194.55,-41.88,116.5,-150.08
,,0,2025-11-18T17:40:08.6Z,9.42,2.84,0.06,8.98,193.59,-36.26,112.02,-153.67
,,0,2025-11-18T17:40:08.61Z,9.38,2.68,-0.38,8.98,180.21,-30.03,106.25,-142.42
,,0,2025-11-18T17:40:08.62Z,9.24,3.01,-0.32,8.73,172.66,-25.38,101.78,-137.14
,,0,2025-11-18T17:40:08.63Z,8.89,3.06,0.08,8.34,171.59,-19.78,100.21,-137.88
,,0,2025-11-18T17:40:08.64Z,8.36,2.74,-0.07,7.89,167.94,-9.26,99.54,-134.94
,,0,2025-11-18T17:40:08.65Z,7.87,2.35,-0.07,7.52,166.78,-5.26,96.55,-135.89
,,0,2025-11-18T17:40:08.66Z,7.59,2.03,0.86,7.27,165.81,-4.74,93.53,-136.83
,,0,2025-11-18T17:40:08.67Z,7.23,2.1,0.62,6.89,162.69,-2.9,95.47,-131.71
,,0,2025-11-18T17:40:08.68Z,7.2,2,-0.11,6.92,163.31,0.49,96.08,-132.05
,,0,2025-11-18T17:40:08.69Z,6.87,1.68,-0.52,6.64,164.9,8.36,93.76,-135.4
,,0,2025-11-18T17:40:08.7Z,6.89,1.73,-0.51,6.65,164.65,9.1,89.94,-137.61
,,0,2025-11-18T17:40:08.71Z,7.05,2.05,-0.35,6.74,162.97,4.03,85.1,-138.93
,,0,2025-11-18T17:40:08.72Z,6.78,2.59,-0.4,6.26,162.75,-5.55,81.79,-140.59
,,0,2025-11-18T17:40:08.73Z,6.95,3.32,-0.99,6.02,166.54,-13.32,82.73,-143.93
,,0,2025-11-18T17:40:08.74Z,6.82,3.28,-1.87,5.69,173.18,-20.93,81.98,-151.11
,,0,2025-11-18T17:40:08.75Z,6.58,3.11,-2.3,5.31,176.71,-31.6,78.65,-155.06
,,0,2025-11-18T17:40:08.76Z,6.71,3.25,-3.02,5.03,180.73,-39.9,75.17,-159.44
,,0,2025-11-18T17:40:08.77Z,7.46,3.7,-3.71,5.31,186.92,-45.03,73.89,-165.68
,,0,2025-11-18T17:40:08.78Z,7.16,3.3,-3.89,5.03,192.64,-49.92,68.19,-173.11
,,0,2025-11-18T17:40:08.951Z,9.38,-1.73,-8.9,2.41,205.94,-137.74,43.54,-146.78
,,0,2025-11-18T17:40:08.961Z,9.41,-2.43,-8.82,2.23,197.88,-130.39,36.04,-144.42
,,0,2025-11-18T17:40:08.971Z,9.75,-3.08,-9.07,1.85,193.88,-130.92,26.04,-140.6
,,0,2025-11-18T17:40:08.981Z,10.04,-3.16,-9.47,1.1,192.34,-132.43,18.41,-138.27
,,0,2025-11-18T17:40:08.991Z,9.8,-3.23,-9.22,0.79,191.66,-128.31,13.98,-141.69
,,0,2025-11-18T17:40:09.001Z,10.02,-3.54,-9.37,0.24,191.74,-127.76,11.24,-142.53
,,0,2025-11-18T17:40:09.011Z,10.11,-3.74,-9.38,-0.41,193.33,-132.75,9.86,-140.2
,,0,2025-11-18T17:40:09.021Z,11.47,-3.99,-10.7,-1.11,202.96,-146.55,6.46,-140.27
,,0,2025-11-18T17:40:09.031Z,11.97,-3.96,-11.17,-1.7,207.06,-156.98,2.06,-135.02
,,0,2025-11-18T17:40:09.041Z,11.39,-3.76,-10.39,-2.74,212.88,-171.6,-1.07,-125.98
,,0,2025-11-18T17:40:09.051Z,12.53,-3.4,-11.54,-3.49,213.72,-176.56,-6.63,-120.24
,,0,2025-11-18T17:40:09.061Z,13.79,-2.68,-12.97,-3.86,213.36,-179.56,-10.42,-114.77
,,0,2025-11-18T17:40:09.071Z,14.44,-2.07,-13.48,-4.75,209.55,-174.02,-14.7,-115.82
,,0,2025-11-18T17:40:09.081Z,14.91,-1.98,-13.65,-5.66,204.07,-167.1,-16.07,-116.03
,,0,2025-11-18T17:40:09.091Z,15.5,-1.4,-13.59,-7.31,201.63,-169.74,-19.34,-107.08
,,0,2025-11-18T17:40:09.101Z,15.68,-0.25,-12.75,-9.13,207.88,-185.06,-23.66,-91.69
,,0,2025-11-18T17:40:09.111Z,16.26,0.59,-11.93,-11.03,223.66,-208.11,-27.83,-77.08
,,0,2025-11-18T17:40:09.121Z,17.39,0.74,-12.11,-12.46,247.5,-234.57,-47.3,-63.2
,,0,2025-11-18T17:40:09.131Z,18.47,2.16,-11.53,-14.26,257.05,-250.14,-38.19,-45.22
,,0,2025-11-18T17:40:09.141Z,21.2,0.92,-13.91,-15.98,255.35,-236.18,-76.96,-59.16
,,0,2025-11-18T17:40:09.151Z,23.59,2.15,-14.75,-18.28,243.45,-220.73,-87.81,-53.29
,,0,2025-11-18T17:40:09.161Z,23.09,2.73,-11.87,-19.62,261.86,-235.48,-106.02,-43.31
,,0,2025-11-18T17:40:09.171Z,22.54,4.13,-10.29,-19.62,285.47,-250.14,-134.14,-30.53
,,0,2025-11-18T17:40:09.181Z,22.08,6,-8.15,-19.62,296.05,-250.14,-157.61,-15.33
,,0,2025-11-18T17:40:09.191Z,22.27,7.88,-7,-19.62,310.97,-250.14,-184.63,-6.86
,,0,2025-11-18T17:40:09.201Z,22.8,9.51,-6.67,-19.62,334.34,-250.14,-221.83,-2.57
,,0,2025-11-18T17:40:09.211Z,24.83,13.87,-6.27,-19.62,353.9,-250.14,-250.14,-10.42
,,0,2025-11-18T17:40:09.221Z,27.48,18.59,-4.92,-19.62,354.91,-250.14,-250.14,-28.7
,,0,2025-11-18T17:40:09.231Z,27.96,19.62,-3.43,-19.62,359.28,-250.14,-250.14,-62.82
,,0,2025-11-18T17:40:09.241Z,27.78,19.62,-1.29,-19.62,367.79,-250.14,-250.14,-100.66
,,0,2025-11-18T17:40:09.251Z,27.77,19.62,1.07,-19.62,386.6,-250.14,-250.14,-155.95
,,0,2025-11-18T17:40:09.261Z,27.78,19.62,1.41,-19.62,414.07,-250.14,-250.14,-215.21
,,0,2025-11-18T17:40:09.271Z,27.76,19.62,0.7,-19.62,433.25,-250.14,-250.14,-250.14
,,0,2025-11-18T17:40:09.281Z,27.8,19.62,-1.78,-19.62,433.25,-250.14,-250.14,-250.14
,,0,2025-11-18T17:40:09.291Z,28.14,19.62,-4.71,-19.62,418.86,-224.3,-250.14,-250.14
,,0,2025-11-18T17:40:09.301Z,28.75,19.62,-7.51,-19.62,391.43,-167.56,-250.14,-250.14
,,0,2025-11-18T17:40:09.311Z,27.95,19.62,-10.06,-17.17,365.05,-90.15,-250.14,-250.14
,,0,2025-11-18T17:40:09.321Z,26.48,19.62,-11.84,-13.28,353.77,-4.28,-250.14,-250.14
,,0,2025-11-18T17:40:09.331Z,26.8,19.62,-15.39,-9.81,365.79,93.1,-250.14,-250.14
,,0,2025-11-18T17:40:09.341Z,28.44,19.62,-19.62,-6.26,413.96,215.01,-250.14,-250.14
,,0,2025-11-18T17:40:09.351Z,28.12,19.62,-19.62,-4.55,433.25,250.13,-250.14,-250.14
,,0,2025-11-18T17:40:09.361Z,29.34,19.62,-19.62,-9.55,433.25,250.13,-250.14,-250.14
,,0,2025-11-18T17:40:09.371Z,32.82,19.62,-19.62,-17.53,433.25,250.13,-250.14,-250.14
,,0,2025-11-18T17:40:09.381Z,33.98,19.62,-19.62,-19.62,433.25,250.13,-250.14,-250.14
,,0,2025-11-18T17:40:09.391Z,33.98,19.62,-19.62,-19.62,433.25,250.13,-250.14,-250.14
,,0,2025-11-18T17:40:09.401Z,33.98,19.62,-19.62,-19.62,433.25,250.13,-250.14,-250.14
,,0,2025-11-18T17:40:09.411Z,33.98,19.62,-19.62,-19.62,426.95,250.13,-250.14,-239.06
,,0,2025-11-18T17:40:09.421Z,33.98,19.62,-19.62,-19.62,374.65,250.13,-250.14,-123.41
,,0,2025-11-18T17:40:09.431Z,31.18,19.62,-14.23,-19.62,355.81,250.13,-250.14,38.34
,,0,2025-11-18T17:40:09.441Z,28.39,19.62,-6.02,-19.62,407.74,250.13,-243.89,210.26
,,0,2025-11-18T17:40:09.451Z,32.17,19.62,-16.28,-19.62,417.56,250.13,-221.86,250.13
,,0,2025-11-18T17:40:09.461Z,31.39,19.62,-14.68,-19.62,395.85,250.13,-177.66,250.13
,,0,2025-11-18T17:40:09.471Z,30.8,19.62,-13.37,-19.62,358.29,250.13,-56.95,250.13
,,0,2025-11-18T17:40:09.481Z,28.32,19.62,-5.66,-19.62,354.31,250.13,20.11,250.13
,,0,2025-11-18T17:40:09.491Z,27.75,19.62,-0.25,-19.62,357.73,250.13,53.29,250.13
,,0,2025-11-18T17:40:09.501Z,27.96,19.62,3.47,-19.62,357.44,250.13,51.32,250.13
,,0,2025-11-18T17:40:09.511Z,28,19.62,3.73,-19.62,354.66,250.13,25.6,250.13
,,0,2025-11-18T17:40:09.521Z,28.28,19.62,5.47,-19.62,356.72,250.13,46.05,250.13
,,0,2025-11-18T17:40:09.531Z,29.27,19.62,10.12,-19.22,368.96,250.13,104.9,250.13
,,0,2025-11-18T17:40:09.541Z,28.65,19.62,12.37,-16.81,380.15,250.13,139.22,250.13
,,0,2025-11-18T17:40:09.551Z,29.14,18.18,17.94,-14.02,372.42,250.13,116.48,250.13
,,0,2025-11-18T17:40:09.561Z,28.59,17.55,19.62,-11.15,362.13,250.13,77.5,250.13
,,0,2025-11-18T17:40:09.571Z,27.3,17.21,19.62,-8.01,358.65,250.13,59.14,250.13
,,0,2025-11-18T17:40:09.581Z,26.12,16.06,19.62,-6.28,317.35,189.91,45.6,250.13
,,0,2025-11-18T17:40:09.591Z,25.59,15.72,19.62,-4.78,269.98,158.19,41.18,214.87
,,0,2025-11-18T17:40:09.601Z,25.41,15.48,19.62,-4.58,219.49,134.65,52.54,165.18
,,0,2025-11-18T17:40:09.611Z,21.98,13.24,17.26,-3.12,166.2,99.82,35.17,128.15
,,0,2025-11-18T17:40:09.621Z,15.18,13.55,6.79,-0.87,125.1,72.85,6.05,101.52
,,0,2025-11-18T17:40:09.631Z,18.1,16.99,6.24,0.25,84.35,54.47,14.84,62.68
,,0,2025-11-18T17:40:09.641Z,19.05,17.26,8.04,0.57,77.41,23.49,72.91,11.18
,,0,2025-11-18T17:40:09.651Z,16.02,14.79,5.9,1.8,115.75,-9.08,113.92,-18.41
,,0,2025-11-18T17:40:09.661Z,12.78,11.9,4.15,2.09,153.55,-21.34,146.55,-40.56
,,0,2025-11-18T17:40:09.671Z,14.1,3.58,13.5,1.94,158.22,-96.45,90.73,-86.6
,,0,2025-11-18T17:40:09.681Z,6.87,-0.98,5.95,3.29,153.25,-144.16,-0.53,-51.99
,,0,2025-11-18T17:40:09.691Z,10.52,-8.18,-3.85,5.38,260.12,-94.08,-166.03,176.77
,,0,2025-11-18T17:40:09.701Z,6.54,-0.42,-6.04,2.48,319.9,-20.22,-248.37,200.59
,,0,2025-11-18T17:40:09.711Z,14.46,13.83,2.85,3.11,170.13,-35.31,-166.33,5.85
,,0,2025-11-18T17:40:09.721Z,13.19,0.82,13.16,-0.32,169.69,-134.96,-78.98,-65.89
,,0,2025-11-18T17:40:09.731Z,14.79,13.78,-0.74,5.31,284.37,-184.22,16.85,-215.98
,,0,2025-11-18T17:40:09.741Z,21.63,19.62,-6.45,6.43,317.79,-168.29,100.5,-250.14
,,0,2025-11-18T17:40:09.751Z,14.11,11.42,-6.96,4.49,339.61,-140.49,181.75,-250.14
,,0,2025-11-18T17:40:09.761Z,7.44,1.63,-3.11,6.56,286.95,-133.86,134.18,-215.45
,,0,2025-11-18T17:40:09.771Z,8.93,-2.42,0.83,8.55,231.11,-145.85,46.81,-173.05
,,0,2025-11-18T17:40:09.781Z,7.93,1.17,-1.6,7.68,293.85,-175.44,19.57,-234.91
,,0,2025-11-18T17:40:09.791Z,9.4,2.98,-5.99,6.6,299.09,-184.53,6.93,-235.27
,,0,2025-11-18T17:40:09.801Z,9.83,3.33,-6.54,6.54,257.03,-166.24,-10.59,-195.75
,,0,2025-11-18T17:40:09.811Z,9.34,2.39,-5.37,7.26,233.89,-155.27,-25.43,-173.05
,,0,2025-11-18T17:40:09.821Z,9.27,2.12,-4.51,7.82,233.29,-151.47,-39.96,-172.88
,,0,2025-11-18T17:40:09.831Z,10.18,3.18,-4.99,8.29,238.24,-149.23,-44.37,-180.34
,,0,2025-11-18T17:40:09.841Z,10.59,3.98,-5.01,8.43,241.44,-149.63,-41.94,-184.79
,,0,2025-11-18T17:40:09.851Z,10.45,4.45,-3.85,8.64,248.23,-157.03,-36.36,-188.78
,,0,2025-11-18T17:40:09.861Z,10.96,4.69,-3.92,9.1,251.38,-167.96,-25.31,-185.31
,,0,2025-11-18T17:40:09.871Z,11.04,4.07,-4.96,8.98,252.05,-176.33,-18.76,-179.12
,,0,2025-11-18T17:40:09.881Z,11.37,3.77,-5.06,9.45,253.92,-182.13,-15.06,-176.28
,,0,2025-11-18T17:40:09.891Z,11.89,3.63,-5.52,9.89,253.94,-186.04,-6.05,-172.73
,,0,2025-11-18T17:40:09.901Z,11.52,2.92,-5.47,9.71,256.48,-188.85,2.33,-173.53
,,0,2025-11-18T17:40:09.911Z,11.35,2.23,-5.11,9.88,260.8,-196.28,7.37,-171.57
,,0,2025-11-18T17:40:09.921Z,11.96,1.86,-5.52,10.44,256.73,-198.89,7.74,-162.15
,,0,2025-11-18T17:40:09.931Z,12.73,2.06,-6.51,10.74,247.54,-196.69,6.21,-150.17
,,0,2025-11-18T17:40:09.941Z,13.34,2.49,-6.83,11.19,240.18,-190.84,11.26,-145.39
,,0,2025-11-18T17:40:09.951Z,13.42,2.25,-6.41,11.58,238,-185.44,21.56,-147.62
,,0,2025-11-18T17:40:09.961Z,13.66,1.14,-5.77,12.33,234.86,-177.96,33.27,-149.6
,,0,2025-11-18T17:40:09.971Z,14.06,-0.49,-5.65,12.86,233.05,-176.5,40.27,-146.76
,,0,2025-11-18T17:40:09.981Z,14.64,-2.11,-5.53,13.39,232.68,-182.3,38.13,-139.47
,,0,2025-11-18T17:40:09.991Z,15,-3.32,-5.8,13.43,231.56,-190.95,30.25,-127.46
,,0,2025-11-18T17:40:10.001Z,15.6,-3.04,-6.98,13.61,226.97,-196.36,21.1,-111.86
,,0,2025-11-18T17:40:10.011Z,15.84,-2.29,-8.38,13.24,214.23,-189.68,12.27,-98.82
,,0,2025-11-18T17:40:10.021Z,15.84,-1.41,-9.12,12.88,202.35,-178.65,5.86,-94.85
,,0,2025-11-18T17:40:10.031Z,15.4,-1.35,-8.6,12.71,198.33,-172.61,0.84,-97.66
,,0,2025-11-18T17:40:10.041Z,15.19,-2.18,-8.4,12.47,192.99,-166.37,-5.11,-97.68
,,0,2025-11-18T17:40:10.051Z,15.39,-3.44,-9.15,11.88,181.78,-158.43,-18.58,-87.18
,,0,2025-11-18T17:40:10.061Z,15.34,-3.9,-9.91,11.04,175.32,-156.3,-36.46,-70.56
,,0,2025-11-18T17:40:10.071Z,15.04,-3.27,-9.83,10.9,171.05,-156.22,-45.45,-52.8
,,0,2025-11-18T17:40:10.081Z,14.12,-2.18,-9.4,10.3,174.26,-158.62,-51.33,-50.7
,,0,2025-11-18T17:40:10.091Z,13.97,-1.58,-10.09,9.53,171.74,-155.42,-55.5,-47.54
,,0,2025-11-18T17:40:10.101Z,14.14,-1.52,-11.16,8.54,162.93,-144.49,-59.73,-45.86
,,0,2025-11-18T17:40:10.111Z,14.62,-1.39,-12.17,7.97,152.74,-132.28,-61.27,-45.56
,,0,2025-11-18T17:40:10.121Z,14.1,-1.65,-11.74,7.64,146.49,-122.75,-64.81,-46.81
,,0,2025-11-18T17:40:10.131Z,13.53,-1.2,-11.38,7.22,145.4,-120.8,-65.18,-47.96
,,0,2025-11-18T17:40:10.141Z,13.1,-0.87,-11.12,6.87,146.52,-122.66,-66.21,-45.16
,,0,2025-11-18T17:40:10.151Z,12.6,-0.1,-10.93,6.27,149.83,-127.69,-64.24,-44.93
,,0,2025-11-18T17:40:10.161Z,12.84,0.66,-11.24,6.16,145.57,-125.71,-55.92,-47.54
,,0,2025-11-18T17:40:10.171Z,13.92,0.68,-12.55,5.99,131.42,-108.11,-45.18,-59.52
,,0,2025-11-18T17:40:10.181Z,14.7,0.25,-13.67,5.41,117.57,-88.47,-35.11,-69.02
,,0,2025-11-18T17:40:10.191Z,14.44,0.2,-13.52,5.07,103.8,-67.69,-23.58,-75.08
,,0,2025-11-18T17:40:10.201Z,13.6,0.31,-12.86,4.41,101.23,-55.32,-14.78,-83.48
,,0,2025-11-18T17:40:10.211Z,12.92,0.73,-12.27,3.99,104.33,-51.73,-7.24,-90.31
,,0,2025-11-18T17:40:10.221Z,12,1.27,-11.38,3.61,112.71,-56.21,0.8,-97.69
,,0,2025-11-18T17:40:10.231Z,11,1.76,-10.36,3.27,124.67,-67.92,9.53,-104.11
,,0,2025-11-18T17:40:10.241Z,10.63,1.85,-10.05,2.93,136.27,-83.69,18.73,-105.9
,,0,2025-11-18T17:40:10.251Z,10.41,1.79,-9.78,3.08,147.14,-101.6,27.76,-102.75
,,0,2025-11-18T17:40:10.261Z,10.39,1.53,-9.76,3.24,154.84,-113.33,36.36,-99.05
,,0,2025-11-18T17:40:10.271Z,10.43,1.03,-9.78,3.49,156.88,-114.67,44.18,-97.52
,,0,2025-11-18T17:40:10.281Z,10.24,0.36,-9.69,3.28,152.02,-108.49,48.11,-95.01
,,0,2025-11-18T17:40:10.291Z,10.05,0.03,-9.53,3.2,144.35,-94.88,50.8,-96.21
,,0,2025-11-18T17:40:10.301Z,9.53,0.06,-9.07,2.93,139.64,-74.07,51.92,-106.39
,,0,2025-11-18T17:40:10.311Z,9.25,0.2,-8.77,2.93,138.8,-56.93,51.2,-115.77
,,0,2025-11-18T17:40:10.321Z,8.56,0.4,-7.95,3.14,140.05,-43.76,51.25,-122.77
,,0,2025-11-18T17:40:10.331Z,7.36,0.02,-6.7,3.03,141.43,-38.39,48.69,-127.11
,,0,2025-11-18T17:40:10.341Z,6.42,-0.59,-5.74,2.81,137.82,-45.58,42.01,-123.1
,,0,2025-11-18T17:40:10.351Z,5.64,-0.86,-4.72,2.96,131.67,-60.28,37.44,-110.91
,,0,2025-11-18T17:40:10.361Z,5.3,-0.63,-4,3.41,133.17,-70.74,35.6,-107.07
,,0,2025-11-18T17:40:10.371Z,5.95,-0.29,-4.57,3.79,132.58,-69.55,35.35,-107.2
,,0,2025-11-18T17:40:10.381Z,6.32,-0.16,-4.73,4.18,122.28,-65.24,36.6,-96.73
,,0,2025-11-18T17:40:10.391Z,6.26,-0.34,-4.27,4.56,111.08,-56.28,37.88,-87.95
,,0,2025-11-18T17:40:10.401Z,6.41,-0.4,-4.09,4.92,100.45,-42.23,39.28,-82.24
,,0,2025-11-18T17:40:10.411Z,6.51,-0.43,-4.12,5.02,87.89,-28.11,37.73,-74.24
,,0,2025-11-18T17:40:10.421Z,6.08,-0.38,-3.48,4.97,78.12,-24.26,35.82,-65.05
,,0,2025-11-18T17:40:10.431Z,5.52,-0.19,-2.48,4.92,74.16,-29.99,36.67,-57.05
,,0,2025-11-18T17:40:10.441Z,5.29,-0.02,-2.19,4.81,73.28,-40,38.65,-47.7
,,0,2025-11-18T17:40:10.451Z,5.41,-0.26,-1.69,5.13,78.85,-47.8,43.21,-45.44
,,0,2025-11-18T17:40:10.461Z,5.73,-0.07,-2.24,5.28,79.45,-56.19,43.5,-35.53
,,0,2025-11-18T17:40:10.471Z,5.72,-0.06,-2.75,5.02,78.05,-57.69,44.17,-28.52
,,0,2025-11-18T17:40:10.481Z,6.73,0.23,-4.52,4.98,75.4,-53.76,47,-24.21
,,0,2025-11-18T17:40:10.491Z,7.82,0.32,-5.85,5.18,67.07,-40.6,46.85,-25.57
,,0,2025-11-18T17:40:10.501Z,9.35,0.82,-7.32,5.76,56.2,-21.68,45.61,-24.66
,,0,2025-11-18T17:40:10.511Z,10.16,1.21,-7.97,6.19,51.57,-0.14,42.36,-29.42
,,0,2025-11-18T17:40:10.521Z,11.05,1.98,-8.45,6.84,50.75,5.15,38.72,-32.4
,,0,2025-11-18T17:40:10.531Z,12.57,2.33,-9.59,7.78,50.93,2.15,34.83,-37.09
,,0,2025-11-18T17:40:10.541Z,14.32,3.16,-11.07,8.52,57.5,-9.97,36.22,-43.53
,,0,2025-11-18T17:40:10.551Z,16.41,3.97,-12.94,9.27,66.99,-18.39,38.51,-51.63
,,0,2025-11-18T17:40:10.561Z,18.7,4.85,-15.19,9.76,75.24,-14.58,40.12,-61.95
,,0,2025-11-18T17:40:10.571Z,21.5,6.16,-17.9,10.2,76.17,-15.47,32.78,-66.99
,,0,2025-11-18T17:40:10.581Z,23.53,7.87,-19.62,10.32,72.82,-22.44,22.33,-65.58
,,0,2025-11-18T17:40:10.591Z,24.28,9.98,-19.62,10.26,71.48,-26.18,17.05,-64.3
,,0,2025-11-18T17:40:10.601Z,24.44,10.98,-19.33,10.14,70.03,-25.96,21.38,-61.43
,,0,2025-11-18T17:40:10.611Z,23.53,10.52,-18.69,9.67,68.72,-23.1,26.91,-58.86
,,0,2025-11-18T17:40:10.621Z,22.22,9.45,-17.82,9.34,66.82,-21.24,28.26,-56.7
,,0,2025-11-18T17:40:10.631Z,20.72,8.6,-16.63,8.88,63.92,-19.08,25.63,-55.37
,,0,2025-11-18T17:40:10.641Z,18.94,7.84,-15.06,8.4,59.84,-17.56,21.5,-53.01
,,0,2025-11-18T17:40:10.651Z,16.9,7.07,-13.28,7.69,54.08,-19.94,15.65,-47.77
,,0,2025-11-18T17:40:10.661Z,15.44,6.39,-11.92,7.45,47.83,-25.91,11.19,-38.62
,,0,2025-11-18T17:40:10.671Z,14.16,5.85,-10.88,6.93,42.99,-31.14,6.34,-28.96
,,0,2025-11-18T17:40:10.681Z,12.87,5.33,-9.7,6.57,36.93,-30.78,2.49,-20.26
,,0,2025-11-18T17:40:10.691Z,11.4,4.61,-8.42,6.15,31.35,-28.27,-0.82,-13.52
,,0,2025-11-18T17:40:10.701Z,10.03,3.89,-7.3,5.67,26.55,-25.24,-4.47,-6.9
,,0,2025-11-18T17:40:10.711Z,8.9,3.19,-6.6,5.05,24.66,-22.79,-8.69,-3.65
,,0,2025-11-18T17:40:10.721Z,7.53,2.73,-5.52,4.33,23.63,-19.4,-12.79,-4.29
,,0,2025-11-18T17:40:10.731Z,6.84,2.57,-4.82,4.12,21.58,-13.43,-14.95,-7.86
,,0,2025-11-18T17:40:10.741Z,6.46,2.66,-4.47,3.84,19.99,-10.04,-14.09,-10.01
,,0,2025-11-18T17:40:10.751Z,7.27,2.62,-5.5,3.98,15.61,-4.66,-7.42,-12.92
,,0,2025-11-18T17:40:10.761Z,5.49,2.77,-3.37,3.34,34.85,1.81,-17.62,-30.02
,,0,2025-11-18T17:40:10.771Z,5.24,1.66,-3.91,3.07,35.31,0.9,-3.93,-35.08
,,0,2025-11-18T17:40:10.781Z,5.07,-0.1,-4.18,2.88,6.98,-2.42,6.37,1.5
,,0,2025-11-18T17:40:10.791Z,5.5,-0.09,-4.87,2.55,7.18,-3.18,-0.28,6.44
,,0,2025-11-18T17:40:10.801Z,5.48,1.11,-4.91,2.17,22.01,-6.25,0.24,-21.11
,,0,2025-11-18T17:40:10.811Z,7.08,2.76,-6.14,2.18,47.59,-3.57,12.52,-45.77
,,0,2025-11-18T17:40:10.821Z,7.82,3.08,-6.89,2.04,80.33,4.88,36.3,-71.5
,,0,2025-11-18T17:40:10.831Z,6.44,1.45,-5.91,2.11,87.66,8.61,49.82,-71.61
,,0,2025-11-18T17:40:10.841Z,5.87,0.44,-5.42,2.21,88.21,3.99,55.53,-68.43
,,0,2025-11-18T17:40:10.851Z,5.97,0.43,-5.46,2.38,86.37,0.37,56.71,-65.14
,,0,2025-11-18T17:40:10.861Z,6.23,1.34,-5.41,2.78,89.01,-0.97,61.3,-64.53
,,0,2025-11-18T17:40:10.871Z,6.7,2.58,-5.31,3.16,98.98,-1.47,69.47,-70.49
,,0,2025-11-18T17:40:10.881Z,7.4,3.45,-5.4,3.71,116.15,6.26,86.03,-77.78
,,0,2025-11-18T17:40:10.891Z,8.18,3.79,-5.16,5.1,130.2,12.15,98.34,-84.46
,,0,2025-11-18T17:40:10.901Z,8.7,3.96,-5.82,5.12,142.96,8.8,107.24,-94.12
,,0,2025-11-18T17:40:10.911Z,9.53,3.93,-6.92,5.24,146.73,8.23,110.51,-96.17
,,0,2025-11-18T17:40:10.921Z,9.51,4.79,-6.51,5,150.1,10.78,109.52,-102.07
,,0,2025-11-18T17:40:10.931Z,10.16,6.48,-5.82,5.25,163.64,11.59,117.68,-113.12
,,0,2025-11-18T17:40:10.941Z,11.25,7.28,-6.59,5.5,180.63,18.12,131.11,-122.92
,,0,2025-11-18T17:40:10.951Z,13.37,7.83,-8.26,7.03,194.84,18.19,144.31,-129.64
,,0,2025-11-18T17:40:11.116Z,16.37,9.47,-5.56,12.13,239.19,17.18,199.02,-131.55
,,0,2025-11-18T17:40:11.125Z,14.75,8.33,-4.75,11.21,241.72,21.6,198.97,-135.55
,,0,2025-11-18T17:40:11.135Z,13.54,7.12,-3.83,10.87,238.87,22.6,195.56,-135.31
,,0,2025-11-18T17:40:11.145Z,12.74,6.4,-3.05,10.59,233.8,22.73,189.05,-135.67
,,0,2025-11-18T17:40:11.155Z,12.14,6.05,-2.27,10.27,230.32,20.92,182.81,-138.53
,,0,2025-11-18T17:40:11.165Z,11.48,5.87,-1.54,9.74,226.77,14.69,178.38,-139.24
,,0,2025-11-18T17:40:11.175Z,10.91,5.65,-0.87,9.3,224.96,3.39,177.56,-138.08
,,0,2025-11-18T17:40:11.185Z,10.44,5.35,-0.97,8.92,225.71,-7.7,178.04,-138.52
,,0,2025-11-18T17:40:11.195Z,10.06,4.91,-1.61,8.63,224.5,-20.02,177.12,-136.47
,,0,2025-11-18T17:40:11.205Z,10.12,4.81,-2.29,8.6,225.41,-12.27,179.36,-135.98
,,0,2025-11-18T17:40:11.215Z,9.78,4.42,-3.39,8.04,226,2.39,177.4,-139.99
,,0,2025-11-18T17:40:11.225Z,8.91,3.72,-3.19,7.44,223.77,12.5,174.61,-139.39
,,0,2025-11-18T17:40:11.235Z,7.64,2.84,-1.8,6.86,215.58,11.01,167.25,-135.58
,,0,2025-11-18T17:40:11.245Z,6.72,2.56,-0.15,6.21,203.85,-6.06,158.59,-127.93
,,0,2025-11-18T17:40:11.255Z,6.46,2.62,-0.2,5.9,199.35,-21.02,158.78,-118.69
,,0,2025-11-18T17:40:11.265Z,7.02,3.02,-1.25,6.22,201.26,-30.16,162.5,-114.85
,,0,2025-11-18T17:40:11.275Z,7.44,2.98,-2.28,6.42,205.2,-25.25,166.86,-116.73
,,0,2025-11-18T17:40:11.285Z,7.32,2.52,-2.77,6.29,206.89,-4.6,169.18,-119
,,0,2025-11-18T17:40:11.295Z,7.02,1.7,-2.24,6.43,203.42,18.66,162.89,-120.41
,,0,2025-11-18T17:40:11.305Z,7.13,1.53,-1.53,6.8,198.33,33.01,154.61,-119.75
,,0,2025-11-18T17:40:11.315Z,6.96,1.62,-0.89,6.71,184.22,27.82,142.07,-113.93
,,0,2025-11-18T17:40:11.325Z,7.37,2.58,-1.08,6.82,184.07,25.9,142.31,-113.84
,,0,2025-11-18T17:40:11.335Z,7.86,3.2,-2.44,6.75,192.82,35.92,141.48,-125.98
,,0,2025-11-18T17:40:11.345Z,8.34,3.35,-3.42,6.83,200.57,47.86,139.44,-135.98
,,0,2025-11-18T17:40:11.355Z,8.37,3.36,-3.62,6.76,206.41,55.89,133.94,-146.77
,,0,2025-11-18T17:40:11.365Z,7.56,3.45,-2.96,6.05,205.47,54.21,124.47,-154.24
,,0,2025-11-18T17:40:11.375Z,7.19,3.9,-2.39,5.54,200.35,40.92,119.21,-155.73
,,0,2025-11-18T17:40:11.385Z,7.09,4.23,-3.09,4.77,199.15,20.95,116.81,-159.93
,,0,2025-11-18T17:40:11.395Z,7.74,4.48,-4.69,4.23,209.85,4.05,114.53,-175.79
,,0,2025-11-18T17:40:11.405Z,8.6,4.61,-5.84,4.3,223.62,-6.53,113.14,-192.78
,,0,2025-11-18T17:40:11.415Z,8.59,4.4,-5.87,4.48,230.94,-17.16,108.8,-202.98
,,0,2025-11-18T17:40:11.425Z,8.64,3.9,-5.94,4.91,232.12,-20.43,104.31,-206.36
,,0,2025-11-18T17:40:11.435Z,9.79,3.72,-6.89,5.87,231.24,-15.92,99.19,-208.28
,,0,2025-11-18T17:40:11.445Z,10.15,3.2,-7.44,6.11,229.33,-7.15,90.66,-210.53
,,0,2025-11-18T17:40:11.455Z,10.07,2.9,-6.77,6.86,225.21,-2.56,82.64,-209.48
,,0,2025-11-18T17:40:11.465Z,9.69,2.34,-5.78,7.42,218.04,-6.23,73.92,-205.03
,,0,2025-11-18T17:40:11.475Z,9.27,2.01,-5.28,7.36,210.54,-11.51,67,-199.27
,,0,2025-11-18T17:40:11.485Z,9.21,1.78,-4.77,7.68,202.74,-23.3,61.69,-191.71
,,0,2025-11-18T17:40:11.495Z,8.93,1.43,-4.45,7.61,197.46,-43.63,56.75,-184.02
,,0,2025-11-18T17:40:11.505Z,9.22,1.22,-5.21,7.51,193.54,-58.24,54.43,-176.36
,,0,2025-11-18T17:40:11.515Z,9.95,0.8,-6.54,7.46,190.59,-59.71,54.43,-172.62
,,0,2025-11-18T17:40:11.525Z,10.18,0.51,-6.46,7.85,187.02,-53.95,53.26,-170.96
,,0,2025-11-18T17:40:11.535Z,9.74,0.09,-5.81,7.82,180.51,-52.64,50.43,-165.14
,,0,2025-11-18T17:40:11.545Z,9.75,-0.16,-5.95,7.73,176.34,-54.41,49.96,-160.12
,,0,2025-11-18T17:40:11.555Z,9.23,-0.14,-5.55,7.37,175.49,-59.41,50.45,-157.24
,,0,2025-11-18T17:40:11.565Z,8.79,-0.2,-5.14,7.12,176.72,-68.93,51.85,-154.24
,,0,2025-11-18T17:40:11.575Z,9,-0.32,-6.1,6.6,178.2,-77.4,53.87,-151.21
,,0,2025-11-18T17:40:11.585Z,9.1,-0.52,-6.77,6.05,178.19,-76.34,53.53,-151.85
,,0,2025-11-18T17:40:11.595Z,8.77,-0.6,-6.68,5.66,175.84,-71.23,53.82,-151.5
,,0,2025-11-18T17:40:11.605Z,8.28,-0.85,-6.55,4.99,172.19,-66.63,52.98,-149.68
,,0,2025-11-18T17:40:11.615Z,7.73,-0.86,-6.19,4.55,170.24,-69.02,52.73,-146.41
,,0,2025-11-18T17:40:11.625Z,6.81,-0.95,-5.44,3.98,173.12,-83.66,52.47,-142.19
,,0,2025-11-18T17:40:11.635Z,6.53,-1.05,-5.41,3.5,179.33,-102.67,52.81,-137.21
,,0,2025-11-18T17:40:11.645Z,7.84,-1.06,-6.89,3.58,181.29,-108.44,52.78,-135.35
,,0,2025-11-18T17:40:11.655Z,8.77,-1.12,-8.07,3.24,180.33,-101.97,50.9,-139.76
,,0,2025-11-18T17:40:11.665Z,8.67,-1.57,-8.11,2.62,175.12,-92.37,46.38,-141.37
,,0,2025-11-18T17:40:11.675Z,8.67,-2.08,-8.15,2.09,170.47,-91.08,40.5,-138.29
,,0,2025-11-18T17:40:11.685Z,8.24,-2.66,-7.66,1.47,168.42,-100.78,35.08,-130.3
,,0,2025-11-18T17:40:11.695Z,8.46,-3.23,-7.78,0.83,169.17,-110.02,26.82,-125.68
,,0,2025-11-18T17:40:11.705Z,9.75,-3.61,-9.04,0.49,167.29,-112.63,18.34,-122.32
,,0,2025-11-18T17:40:11.715Z,10.95,-4.09,-10.16,0.08,157.73,-97.77,6.55,-123.6
,,0,2025-11-18T17:40:11.725Z,11,-3.88,-10.3,-0.07,155.2,-84.58,-4.88,-130.03
,,0,2025-11-18T17:40:11.735Z,10.94,-3.89,-10.21,-0.5,154.47,-79.93,-14.35,-131.4
,,0,2025-11-18T17:40:11.745Z,10.69,-4.04,-9.89,-0.49,155.33,-91.27,-21.47,-123.85
,,0,2025-11-18T17:40:11.755Z,10.44,-3.78,-9.71,-0.5,162.07,-111.51,-27.25,-114.41
,,0,2025-11-18T17:40:11.765Z,10.84,-3.78,-10.12,-0.82,169.75,-130.37,-31.49,-104.06
,,0,2025-11-18T17:40:11.775Z,12.6,-3.7,-11.99,-1.13,171.65,-139.25,-34.47,-94.27
,,0,2025-11-18T17:40:11.785Z,13.51,-3.2,-13.02,-1.64,169.06,-139.99,-37.27,-87.14
,,0,2025-11-18T17:40:11.795Z,13.93,-2.82,-13.48,-2.1,167.52,-142.69,-39.6,-78.31
,,0,2025-11-18T17:40:11.805Z,14.62,-2.73,-14.03,-3.08,168.8,-147.5,-45.11,-68.59
,,0,2025-11-18T17:40:11.815Z,14.47,-1.84,-13.83,-3.86,173.61,-156.55,-50.11,-55.86
,,0,2025-11-18T17:40:11.825Z,14.08,-1.88,-12.99,-5.08,183.5,-170.27,-49.43,-47.27
,,0,2025-11-18T17:40:11.835Z,16.34,-3.01,-12.95,-9.5,192.92,-182.26,-46.55,-42.79
,,0,2025-11-18T17:40:11.845Z,16.42,-1.83,-13.76,-8.77,201.44,-187.98,-65.12,-31.63
,,0,2025-11-18T17:40:11.855Z,17.31,-0.98,-14.08,-10.03,214.69,-195.55,-84.05,-28.06
,,0,2025-11-18T17:40:11.865Z,17.4,0.6,-13.25,-11.26,233.41,-211.73,-96.34,-19.2
,,0,2025-11-18T17:40:11.875Z,16.56,1.5,-11.37,-11.95,253.79,-230.37,-105.86,-11.48
,,0,2025-11-18T17:40:11.885Z,17.57,2.12,-11.61,-13.03,268.35,-242.21,-115.05,-10.46
,,0,2025-11-18T17:40:11.895Z,19.13,2.73,-11.79,-14.82,278.9,-250.14,-123.06,-8.47
,,0,2025-11-18T17:40:11.905Z,20.34,3.53,-11.33,-16.52,283.28,-250.14,-132.61,-9.76
,,0,2025-11-18T17:40:11.915Z,21.79,4.23,-11.08,-18.28,288.81,-250.14,-143.42,-16.57
,,0,2025-11-18T17:40:11.925Z,23.01,5.51,-10.67,-19.62,291.57,-250.14,-148.52,-19.63
,,0,2025-11-18T17:40:11.935Z,22.78,7.68,-8.66,-19.62,297.65,-250.14,-160.59,-15.36
,,0,2025-11-18T17:40:11.945Z,23.65,10.78,-7.63,-19.62,311.17,-250.14,-183.91,-20.93
,,0,2025-11-18T17:40:11.955Z,26.28,15.08,-8.84,-19.62,328.37,-250.14,-211.23,-25.34
,,0,2025-11-18T17:40:11.965Z,29.53,19.61,-10.14,-19.62,350.89,-250.14,-242.58,-41.32
,,0,2025-11-18T17:40:11.975Z,29.3,19.62,-9.41,-19.62,359.44,-250.14,-250.14,-63.73
,,0,2025-11-18T17:40:11.985Z,28.32,19.62,-5.65,-19.62,361.5,-250.14,-250.14,-74.47
,,0,2025-11-18T17:40:11.995Z,27.96,19.62,-3.48,-19.62,369.68,-250.14,-250.14,-107.37
,,0,2025-11-18T17:40:12.005Z,27.97,19.62,-3.54,-19.62,385.6,-250.14,-250.14,-153.45
,,0,2025-11-18T17:40:12.015Z,28.21,19.62,-5.11,-19.62,419.38,-250.14,-250.14,-225.26
,,0,2025-11-18T17:40:12.025Z,28.92,19.62,-8.14,-19.62,433.25,-250.14,-250.14,-250.14
,,0,2025-11-18T17:40:12.035Z,29.76,19.62,-10.76,-19.62,433.25,-250.14,-250.14,-250.14
,,0,2025-11-18T17:40:12.045Z,30.98,19.62,-13.77,-19.62,433.25,-250.14,-250.14,-250.14
,,0,2025-11-18T17:40:12.055Z,28.71,19.62,-15.11,-14.54,433.25,-250.14,-250.14,-250.14
,,0,2025-11-18T17:40:12.065Z,28.05,19.62,-18.45,-7.85,402.48,-191.97,-250.14,-250.14
,,0,2025-11-18T17:40:12.075Z,27.89,19.62,-19.62,-2.84,363.54,-83.82,-250.14,-250.14
,,0,2025-11-18T17:40:12.085Z,27.75,19.62,-19.62,0.69,357.16,49.25,-250.14,-250.14
,,0,2025-11-18T17:40:12.095Z,27.88,19.62,-19.62,2.75,421.17,228.58,-250.14,-250.14
,,0,2025-11-18T17:40:12.105Z,28.11,19.62,-19.62,-4.51,433.25,250.13,-250.14,-250.14
,,0,2025-11-18T17:40:12.115Z,32.24,19.62,-19.62,-16.43,433.25,250.13,-250.14,-250.14
,,0,2025-11-18T17:40:12.125Z,33.98,19.62,-19.62,-19.62,433.25,250.13,-250.14,-250.14
,,0,2025-11-18T17:40:12.135Z,32.42,16.76,-19.62,-19.62,433.25,250.13,-250.14,-250.14
,,0,2025-11-18T17:40:12.145Z,33.98,19.62,-19.62,-19.62,433.25,250.13,-250.14,-250.14
,,0,2025-11-18T17:40:12.155Z,33.98,19.62,-19.62,-19.62,433.25,250.13,-250.14,-250.14
,,0,2025-11-18T17:40:12.165Z,33.98,19.62,-19.62,-19.62,405.74,250.13,-250.14,-198.73
,,0,2025-11-18T17:40:12.175Z,33.98,19.62,-19.62,-19.62,364.06,250.13,-250.14,-86.08
,,0,2025-11-18T17:40:12.185Z,28.62,19.62,-7.02,-19.62,344.34,250.13,-218.3,91.38
,,0,2025-11-18T17:40:12.195Z,28.13,19.62,-4.65,-19.62,365.81,250.13,-93.2,250.13
,,0,2025-11-18T17:40:12.205Z,28,19.62,3.73,-19.62,359.16,250.13,62.16,250.13
,,0,2025-11-18T17:40:12.215Z,28.04,19.62,-4.05,-19.62,412.16,250.13,211.54,250.13
,,0,2025-11-18T17:40:12.225Z,27.9,19.62,-2.96,-19.62,433.24,250.13,250.13,250.13
,,0,2025-11-18T17:40:12.235Z,27.96,19.62,3.48,-19.62,428.21,250.13,241.32,250.13
,,0,2025-11-18T17:40:12.245Z,28.01,19.62,3.86,-19.62,395.82,250.13,177.61,250.13
,,0,2025-11-18T17:40:12.255Z,28.28,19.62,5.48,-19.62,397.98,250.13,182.36,250.13
,,0,2025-11-18T17:40:12.265Z,29.09,19.62,8.75,-19.62,423.68,250.13,233.18,250.13
,,0,2025-11-18T17:40:12.275Z,28.76,19.62,7.58,-19.62,431.56,250.13,247.21,250.13
,,0,2025-11-18T17:40:12.285Z,25.74,15.86,11.05,-17.01,405.97,250.13,199.2,250.13
,,0,2025-11-18T17:40:12.295Z,29.69,17,19.51,-14.57,376.99,250.13,130.35,250.13
,,0,2025-11-18T17:40:12.305Z,30.21,19.28,19.62,-12.48,357.09,225.95,117.87,250.13
,,0,2025-11-18T17:40:12.315Z,26.26,16.96,16.47,-11.44,318.71,153.79,123.94,250.13
,,0,2025-11-18T17:40:12.325Z,22.72,15.69,13.71,-9.07,307.93,134.09,119.47,250.13
,,0,2025-11-18T17:40:12.335Z,21.69,13.31,14.87,-8.49,285.19,104.32,105.11,243.73
,,0,2025-11-18T17:40:12.345Z,19.27,12.83,12.91,-6.32,229.25,80.18,82.13,198.45
,,0,2025-11-18T17:40:12.355Z,19.6,14.05,12.97,-4.32,182.75,61.98,73.3,155.5
,,0,2025-11-18T17:40:12.365Z,19.77,14.46,13.33,-1.98,145.05,31.06,75.5,119.9
,,0,2025-11-18T17:40:12.375Z,17.9,13.22,12.06,-0.1,114.22,-2.5,76.6,84.69
,,0,2025-11-18T17:40:12.385Z,17.24,9.95,14.03,1.16,91.79,-45.17,63.73,48.2
,,0,2025-11-18T17:40:12.395Z,14.61,5.68,13.27,2.3,106.88,-100.31,6.52,36.31
,,0,2025-11-18T17:40:12.405Z,5.01,-4.41,-0.63,2.28,213.51,-67.6,-122.37,161.38
,,0,2025-11-18T17:40:12.415Z,4.28,3.46,0.9,2.34,323.83,-45.41,-200.6,250.13
,,0,2025-11-18T17:40:12.425Z,17.2,16.09,5.9,1.38,222.47,-50.59,-137.89,167.1
,,0,2025-11-18T17:40:12.435Z,20.6,19.62,6.25,0.48,142.79,-103.6,37.7,-90.74
,,0,2025-11-18T17:40:12.445Z,6.96,5.15,2.98,3.61,125.56,-116.72,37.76,-26.75
,,0,2025-11-18T17:40:12.455Z,16.6,14.44,7.21,3.88,258.82,-177.86,1.16,-188.02
,,0,2025-11-18T17:40:12.465Z,14.26,13.89,0.93,3.11,334.74,-178.44,132.84,-250.14
,,0,2025-11-18T17:40:12.475Z,9.34,8.03,1.61,4.48,299.48,-150.92,109.88,-234.18
,,0,2025-11-18T17:40:12.485Z,8.53,5.83,4.58,4.22,312.49,-172.92,71.95,-250.14
,,0,2025-11-18T17:40:12.495Z,8.25,4.1,5.18,4.93,317.6,-189.37,53.79,-249.23
,,0,2025-11-18T17:40:12.505Z,7.34,-0.44,-4.96,5.39,268.29,-184.17,26.21,-193.33
,,0,2025-11-18T17:40:12.515Z,8.26,-1.18,-2.44,7.81,238.89,-171.81,-56.54,-156.06
,,0,2025-11-18T17:40:12.525Z,8.6,1.65,-3.47,7.7,230.96,-167.83,-81.96,-135.86
,,0,2025-11-18T17:40:12.535Z,9.09,5.45,-2.15,6.95,254.26,-183.34,-86.98,-153.2
,,0,2025-11-18T17:40:12.545Z,10.96,8.11,-2.23,7.02,280.05,-208.46,-71.56,-172.79
,,0,2025-11-18T17:40:12.555Z,10.74,7.82,-3.01,6.72,293.42,-229.47,-45.7,-177.06
,,0,2025-11-18T17:40:12.565Z,9.95,5.7,-4.51,6.8,308.86,-245.63,-31.21,-184.63
,,0,2025-11-18T17:40:12.575Z,9.8,4.07,-5.76,6.8,317.11,-250.14,-29.58,-192.66
,,0,2025-11-18T17:40:12.585Z,10.62,3.19,-7.21,7.11,317.51,-250.14,-32.66,-192.81
,,0,2025-11-18T17:40:12.595Z,11.44,3.11,-8.06,7.49,316.16,-249.85,-36.33,-190.31
,,0,2025-11-18T17:40:12.605Z,11.98,3.46,-8.37,7.84,313.21,-247.08,-36.2,-189.05
,,0,2025-11-18T17:40:12.615Z,11.62,3.91,-7.9,7.58,314.73,-250.14,-31.37,-188.43
,,0,2025-11-18T17:40:12.625Z,12.06,4.13,-8.18,7.83,313.36,-250.14,-24.18,-187.19
,,0,2025-11-18T17:40:12.635Z,12.62,4.13,-8.32,8.55,309.76,-247.21,-14.15,-186.11
,,0,2025-11-18T17:40:12.645Z,12.93,3.63,-8.38,9.16,307.31,-247.95,-2.05,-181.54
,,0,2025-11-18T17:40:12.655Z,13.33,2.89,-8.59,9.78,306.54,-248.9,8.95,-178.7
,,0,2025-11-18T17:40:12.665Z,13.73,2.3,-8.45,10.57,307.64,-250.14,21.86,-177.76
,,0,2025-11-18T17:40:12.675Z,14.02,1.46,-8.43,11.11,307.06,-250.14,30.82,-175.41
,,0,2025-11-18T17:40:12.685Z,14.38,1,-8.87,11.28,304,-250.14,37.31,-168.69
,,0,2025-11-18T17:40:12.695Z,14.52,0.99,-9.35,11.06,297.9,-250.14,40.35,-156.67
,,0,2025-11-18T17:40:12.705Z,14.35,1.14,-9.48,10.71,292.13,-250.14,48.69,-142.84
,,0,2025-11-18T17:40:12.715Z,13.69,0.57,-9.01,10.28,291.88,-250.14,63.24,-136.47
,,0,2025-11-18T17:40:12.725Z,13.76,-0.91,-9.4,10.01,294.11,-249.13,75.02,-137.13
,,0,2025-11-18T17:40:12.735Z,14.78,-3.12,-10.93,9.44,274.6,-226.98,73.17,-136.12
,,0,2025-11-18T17:40:12.745Z,16,-5.04,-11.8,9.57,257,-211.63,62.04,-131.96
,,0,2025-11-18T17:40:12.755Z,16.19,-6.04,-11.36,9.83,240.21,-200.95,34.39,-127.02
,,0,2025-11-18T17:40:12.765Z,16.1,-5.82,-10.8,10.44,226.9,-196.86,14.24,-111.92
,,0,2025-11-18T17:40:12.775Z,15.41,-4.85,-10.27,10.41,218.42,-196.48,-4.39,-95.31
,,0,2025-11-18T17:40:12.785Z,15.03,-4.01,-10.04,10.45,215.48,-199.12,-15.36,-80.92
,,0,2025-11-18T17:40:12.795Z,15.22,-3.8,-10.22,10.62,215.28,-201.87,-20.34,-71.98
,,0,2025-11-18T17:40:12.805Z,16.4,-3.8,-11.54,11.02,198.93,-185.4,-25.73,-67.34
,,0,2025-11-18T17:40:12.815Z,18.24,-3.89,-14.52,10.33,172.58,-155.92,-42.05,-60.87
,,0,2025-11-18T17:40:12.825Z,18.19,-2.99,-14.95,9.91,148.79,-129.21,-48.6,-55.52
,,0,2025-11-18T17:40:12.835Z,16.49,-1.82,-13.64,9.1,133.2,-111.07,-54.85,-48.97
,,0,2025-11-18T17:40:12.845Z,15.25,-1.27,-12.78,8.23,128.12,-107.08,-59.36,-37.77
,,0,2025-11-18T17:40:12.855Z,14.43,-0.5,-12.26,7.6,128.36,-109.05,-59.45,-32.4
,,0,2025-11-18T17:40:12.865Z,14.27,-0.42,-12.52,6.83,124.17,-105.32,-56.84,-33.09
,,0,2025-11-18T17:40:12.875Z,14.96,-0.89,-13.67,6.02,116.44,-94.18,-59.61,-33.68
,,0,2025-11-18T17:40:12.885Z,14.9,-1.17,-13.9,5.22,109.72,-82.98,-62.37,-35.53
,,0,2025-11-18T17:40:12.895Z,14.12,-1.26,-13.37,4.38,105.92,-75.83,-64.18,-36.74
,,0,2025-11-18T17:40:12.905Z,13.8,-1.06,-13.22,3.81,106.68,-75.44,-67.45,-33.76
,,0,2025-11-18T17:40:12.915Z,13.91,-0.59,-13.43,3.56,107.51,-75.85,-69.5,-31.21
,,0,2025-11-18T17:40:12.925Z,13.86,0.09,-13.5,3.15,109.92,-77.89,-70.55,-32.23
,,0,2025-11-18T17:40:12.935Z,13.26,1.25,-12.82,3.15,114.22,-86.05,-67.63,-32.66
,,0,2025-11-18T17:40:12.945Z,12.32,1.78,-11.85,2.88,121,-99.83,-61.79,-29.27
,,0,2025-11-18T17:40:12.955Z,12.05,1.99,-11.57,2.72,128.64,-113.2,-54.37,-27.9
,,0,2025-11-18T17:40:12.965Z,12.03,1.68,-11.63,2.58,138.86,-128.18,-44.68,-29.28
,,0,2025-11-18T17:40:12.975Z,11.75,1.18,-11.46,2.33,150.92,-142.76,-36.65,-32.43
,,0,2025-11-18T17:40:12.985Z,11.53,0.88,-11.29,2.21,160.08,-153.51,-28.46,-35.34
,,0,2025-11-18T17:40:12.995Z,12.18,0.78,-11.92,2.33,152.96,-144.7,-19.92,-45.41
,,0,2025-11-18T17:40:13.005Z,13.69,0.88,-13.41,2.61,134.13,-119.17,-11.35,-60.51
,,0,2025-11-18T17:40:13.015Z,13.92,1.11,-13.53,3.06,111.53,-81.45,-1.76,-76.18
,,0,2025-11-18T17:40:13.025Z,12.51,1.16,-11.96,3.49,100.89,-52.5,9.44,-85.63
,,0,2025-11-18T17:40:13.035Z,10.32,0.69,-9.7,3.46,95.76,-36.68,18.58,-86.48
,,0,2025-11-18T17:40:13.045Z,8.63,0.17,-7.89,3.48,90.49,-32.93,23.6,-80.91
,,0,2025-11-18T17:40:13.055Z,7.61,0,-6.7,3.6,87.15,-37.69,27.18,-73.73
,,0,2025-11-18T17:40:13.065Z,7.08,-0.08,-5.99,3.76,85.83,-43.89,30,-67.38
,,0,2025-11-18T17:40:13.075Z,6.51,-0.24,-5.41,3.61,85.07,-51.25,30.53,-60.65
,,0,2025-11-18T17:40:13.085Z,5.7,-0.15,-4.55,3.43,87.1,-61.28,31.06,-53.53
,,0,2025-11-18T17:40:13.095Z,5.2,-0.18,-3.93,3.4,92.36,-71.87,30.54,-49.32
,,0,2025-11-18T17:40:13.105Z,5.16,-0.03,-3.8,3.49,98.55,-80.05,31.78,-47.9
,,0,2025-11-18T17:40:13.115Z,5.42,0.02,-4.12,3.52,99.68,-80.1,34.21,-48.48
,,0,2025-11-18T17:40:13.308Z,16,2.97,-14.65,5.7,19.06,-6.73,16.94,5.57
,,0,2025-11-18T17:40:13.317Z,17.25,3.02,-16.07,5.53,18.81,-15.63,10.43,-0.8
,,0,2025-11-18T17:40:13.327Z,19.16,3.84,-17.99,5.35,31.55,-30.66,-0.47,-7.42
,,0,2025-11-18T17:40:13.337Z,20.97,5.49,-19.62,4.94,48,-44.42,-12.04,-13.63
,,0,2025-11-18T17:40:13.347Z,21.72,7.99,-19.62,4.81,53.65,-46.27,-16.44,-21.62
,,0,2025-11-18T17:40:13.357Z,22.38,9.58,-19.62,4.91,55.58,-39.37,-13.94,-36.67
,,0,2025-11-18T17:40:13.367Z,22.82,10.18,-19.62,5.68,60.67,-26.6,-0.13,-54.53
,,0,2025-11-18T17:40:13.377Z,22.34,8.2,-19.62,6.84,61.16,20.11,3.25,-57.67
,,0,2025-11-18T17:40:13.387Z,21.55,7.22,-19.15,6.77,102.69,65.15,-12.79,-78.34
,,0,2025-11-18T17:40:13.397Z,18.77,8.07,-15.82,6.08,125.22,74.76,-20.27,-98.38
,,0,2025-11-18T17:40:13.407Z,16.65,8.44,-13.2,5.65,105.69,57.31,-12.97,-87.85
,,0,2025-11-18T17:40:13.417Z,15.16,7.87,-11.78,5.39,66.74,30.96,-0.88,-59.11
,,0,2025-11-18T17:40:13.427Z,12.87,6.58,-9.9,4.94,27.65,2.49,6.86,-26.67
,,0,2025-11-18T17:40:13.437Z,11.46,4.93,-8.94,5.2,29.13,-29.08,-0.31,-1.52
,,0,2025-11-18T17:40:13.447Z,10.94,4.4,-8.8,4.77,47.49,-46.27,-10.31,2.88
,,0,2025-11-18T17:40:13.457Z,10.49,4.44,-8.38,4.49,48.79,-47.69,-9.81,-3.26
,,0,2025-11-18T17:40:13.467Z,10.09,4.28,-8.23,3.98,38.24,-35.9,0.15,-13.18
,,0,2025-11-18T17:40:13.477Z,8.17,3.34,-6.72,3.24,36.4,-31.53,11.13,-14.4
,,0,2025-11-18T17:40:13.487Z,6.91,1.96,-5.99,2.85,43.03,-34.94,18.33,-17.17
,,0,2025-11-18T17:40:13.497Z,7.04,0.85,-6.45,2.7,41.49,-35.08,18.34,-12.4
,,0,2025-11-18T17:40:13.507Z,6.76,-0.33,-6.38,2.22,30.58,-27.08,12.98,-5.76
,,0,2025-11-18T17:40:13.517Z,5.3,-0.71,-4.88,1.94,24.15,-23.31,6.21,-1.06
,,0,2025-11-18T17:40:13.527Z,4.85,0.31,-4.59,1.54,44.26,-29.14,0.08,-33.31
,,0,2025-11-18T17:40:13.537Z,5.28,0.2,-5.04,1.56,38.46,-30.21,6.69,-22.83
,,0,2025-11-18T17:40:13.547Z,6.14,-1.54,-5.58,2.05,26.33,-21.85,2.27,14.5
,,0,2025-11-18T17:40:13.557Z,9.14,-1.63,-8.54,2.83,32.85,-3.66,-11.11,30.69
,,0,2025-11-18T17:40:13.567Z,8.78,-0.18,-8.29,2.87,33.28,17.08,-16.34,23.44
,,0,2025-11-18T17:40:13.577Z,6.82,1.18,-6.22,2.56,33.16,22.7,-14.02,19.69
,,0,2025-11-18T17:40:13.587Z,6.81,1.69,-5.95,2.85,29.2,15.66,-10.45,22.32
,,0,2025-11-18T17:40:13.597Z,7.89,1.77,-7.02,3.15,24.67,9.85,-5.11,22.03
,,0,2025-11-18T17:40:13.607Z,8.61,1.48,-7.86,3.19,17.73,9.57,-2.04,14.78
,,0,2025-11-18T17:40:13.617Z,8.83,1.13,-8.18,3.12,17.55,12.74,-2.85,11.73
,,0,2025-11-18T17:40:13.627Z,8.15,0.98,-7.62,2.72,14.14,8.88,-7.05,8.45
,,0,2025-11-18T17:40:13.637Z,7.04,1.86,-6.13,2.92,18.06,-15.45,-8.58,3.7
,,0,2025-11-18T17:40:13.647Z,7.76,2.55,-7.07,1.93,42.82,-39.91,-5.31,-14.59
,,0,2025-11-18T17:40:13.657Z,9.04,2.38,-8.56,1.62,45.2,-41.83,-0.43,-17.11
,,0,2025-11-18T17:40:13.667Z,10.64,2.99,-9.97,2.19,38.31,-34.56,6.08,-15.37
,,0,2025-11-18T17:40:13.677Z,12.58,3.4,-11.77,2.86,37.48,-26.55,10.34,-24.35
,,0,2025-11-18T17:40:13.687Z,13,3.53,-12.14,3.02,49.71,-12.4,12.37,-46.52
,,0,2025-11-18T17:40:13.697Z,11.87,3.75,-10.71,3.47,53.13,1.76,13.18,-51.44
,,0,2025-11-18T17:40:13.707Z,10.14,3.55,-9.01,3,47.61,1.09,12.8,-45.85
,,0,2025-11-18T17:40:13.717Z,8.87,3.55,-7.8,2.28,44.39,-10.47,12.73,-41.22
,,0,2025-11-18T17:40:13.727Z,8.41,3.54,-7.45,1.62,46.37,-23.34,12.27,-38.15
,,0,2025-11-18T17:40:13.737Z,8.66,3.97,-7.47,1.85,51.9,-35.21,12.44,-36.05
,,0,2025-11-18T17:40:13.747Z,9.58,4.51,-8.11,2.39,61.44,-43.27,17.89,-39.78
,,0,2025-11-18T17:40:13.757Z,10.12,4.77,-8.5,2.73,70.03,-43.92,24.62,-48.68
,,0,2025-11-18T17:40:13.767Z,10.18,4.6,-8.58,2.97,73.01,-35.54,33.85,-54.05
,,0,2025-11-18T17:40:13.777Z,9.38,4,-7.89,3.1,72.8,-24.5,42.27,-53.97
,,0,2025-11-18T17:40:13.787Z,8.23,3.07,-7.03,2.99,66.04,-15.4,41.91,-48.66
,,0,2025-11-18T17:40:13.797Z,7.18,2.63,-6.1,2.72,52.08,-15.94,35.08,-35.04
,,0,2025-11-18T17:40:13.807Z,7.06,2.72,-5.79,2.99,43.99,-23.46,30.08,-21.91
,,0,2025-11-18T17:40:13.817Z,6.97,3.04,-5.48,3.05,42.97,-26.43,28.18,-18.81
,,0,2025-11-18T17:40:13.827Z,7.24,3.5,-5.59,2.99,43.01,-25.28,27.18,-21.71
,,0,2025-11-18T17:40:13.837Z,7.51,3.86,-5.82,2.76,45.24,-23.26,29.14,-25.63
,,0,2025-11-18T17:40:13.847Z,8.33,3.99,-6.48,3.38,47,-15.58,33,-29.61
,,0,2025-11-18T17:40:13.857Z,9.5,4.31,-7.51,3.91,46.77,-10.3,34.51,-29.84
,,0,2025-11-18T17:40:13.867Z,11.15,5.12,-8.7,4.74,53.16,-9.76,42.27,-30.73
,,0,2025-11-18T17:40:13.877Z,12.26,5.74,-9.45,5.29,66.37,-4.15,57.17,-33.46
,,0,2025-11-18T17:40:13.887Z,12.66,5.91,-9.38,6.11,80.93,7.46,71.17,-37.79
,,0,2025-11-18T17:40:13.897Z,13.29,6.09,-9.65,6.82,90.23,18.05,79.25,-39.18
,,0,2025-11-18T17:40:13.907Z,13.75,6.74,-9.89,6.78,99.39,24.38,85.92,-43.63
,,0,2025-11-18T17:40:13.917Z,14.64,7.76,-10.53,6.59,111.07,28.63,95.24,-49.46
,,0,2025-11-18T17:40:13.927Z,16.64,9.11,-12.09,6.91,125.67,35.95,108.96,-51.27
,,0,2025-11-18T17:40:13.937Z,18.69,10.28,-13.85,7.2,146.18,44.08,128.03,-55.09
,,0,2025-11-18T17:40:13.947Z,19.91,10.9,-15.02,7.2,167.27,53.02,145.18,-63.96
,,0,2025-11-18T17:40:13.957Z,20.82,11.26,-15.67,7.81,183.48,59.26,160.1,-67.23
,,0,2025-11-18T17:40:13.967Z,21.36,11.75,-15.86,8.16,196.97,64.29,170.92,-73.82
,,0,2025-11-18T17:40:13.977Z,21.59,12.37,-15.59,8.38,207.34,66.14,178.73,-81.69
,,0,2025-11-18T17:40:13.987Z,22.02,13.28,-15.32,8.6,218.49,67.97,187.76,-88.68
,,0,2025-11-18T17:40:13.997Z,22.1,14.12,-14.69,8.55,230.83,70.68,198.15,-94.98
,,0,2025-11-18T17:40:14.007Z,22.22,14.69,-14.29,8.58,245.64,71.34,213.31,-98.74
,,0,2025-11-18T17:40:14.017Z,21.74,14.74,-13.63,8.36,262.34,68.72,231.75,-101.95
,,0,2025-11-18T17:40:14.027Z,21.09,14.54,-13.07,7.91,279.11,64.09,248.29,-110.21
,,0,2025-11-18T17:40:14.037Z,20.12,13.88,-12.52,7.44,281.73,60.36,250.13,-114.73
,,0,2025-11-18T17:40:14.047Z,18.86,12.56,-11.97,7.4,280.81,59.31,250.13,-113
,,0,2025-11-18T17:40:14.057Z,17.36,11.18,-11.01,7.41,279.74,59.89,250.13,-110.02
,,0,2025-11-18T17:40:14.067Z,16.2,10.46,-10,7.27,279.54,59.85,250.13,-109.53
,,0,2025-11-18T17:40:14.077Z,15.32,10.19,-9.14,6.88,280.06,59.6,250.13,-110.97
,,0,2025-11-18T17:40:14.087Z,14.28,9.83,-8.49,5.94,280.51,57.31,250.13,-113.31
,,0,2025-11-18T17:40:14.097Z,13.37,9.16,-8.15,5.34,280.29,53.03,250.13,-114.82
,,0,2025-11-18T17:40:14.107Z,12.37,8.04,-8.06,4.83,281.39,53.88,250.13,-117.09
,,0,2025-11-18T17:40:14.117Z,11.46,6.89,-8.04,4.39,283.89,60.34,250.13,-119.95
,,0,2025-11-18T17:40:14.127Z,10.24,5.84,-7.52,3.78,287.38,71.67,250.13,-122
,,0,2025-11-18T17:40:14.137Z,9.04,5.09,-6.53,3.62,290.28,80.65,249.21,-125.11
,,0,2025-11-18T17:40:14.147Z,7.99,4.87,-5.35,3.39,284.19,81.65,238.35,-131.48
,,0,2025-11-18T17:40:14.157Z,6.95,4.26,-4.57,3.06,275.23,81.47,222.47,-140.07
,,0,2025-11-18T17:40:14.167Z,6.18,3.83,-3.85,2.94,269.46,78.44,213.78,-144.06
,,0,2025-11-18T17:40:14.177Z,6.37,4.3,-3.05,3.58,268.9,68.28,205.66,-159.22
,,0,2025-11-18T17:40:14.187Z,6.11,3.66,-2.99,3.87,268.33,65.16,202.92,-163.03
,,0,2025-11-18T17:40:14.197Z,5.81,3.46,-1.97,4.22,269.31,63.73,197.56,-171.57
,,0,2025-11-18T17:40:14.207Z,5.29,2.51,-1.24,4.49,262.84,64.02,189.76,-170.23
,,0,2025-11-18T17:40:14.217Z,5.49,2.34,-1.01,4.86,250.64,60.07,176.24,-167.78
,,0,2025-11-18T17:40:14.227Z,5.78,2.93,-0.6,4.95,240.66,45.71,167.02,-167.14
,,0,2025-11-18T17:40:14.237Z,6.19,3.79,-0.64,4.86,239.96,29.76,167.59,-169.15
,,0,2025-11-18T17:40:14.247Z,6.3,3.65,-1.56,4.89,242.79,22.01,171.86,-170.08
,,0,2025-11-18T17:40:14.257Z,6.11,2.42,-2.22,5.16,233.85,22.28,168.74,-160.37
,,0,2025-11-18T17:40:14.267Z,5.75,1.43,-2.24,5.1,222.3,25.95,156.66,-155.57
,,0,2025-11-18T17:40:14.277Z,5.68,1.49,-2.52,4.86,216.41,29.79,146.05,-156.89
,,0,2025-11-18T17:40:14.287Z,5.46,1.56,-2.76,4.45,211.51,30.91,139.53,-155.92
,,0,2025-11-18T17:40:14.297Z,5.39,1.67,-2.97,4.18,205.2,25.15,134.56,-152.87
,,0,2025-11-18T17:40:14.307Z,5.6,1.54,-3.49,4.1,200.11,17.12,130.22,-150.97
,,0,2025-11-18T17:40:14.317Z,5.95,1.69,-3.92,4.15,200.78,15.76,126.68,-154.97
,,0,2025-11-18T17:40:14.327Z,6.02,1.71,-4.12,4.03,201.75,15.64,120.02,-161.41
,,0,2025-11-18T17:40:14.337Z,6.58,1.96,-4.34,4.53,200.15,8.61,114.27,-164.1
,,0,2025-11-18T17:40:14.347Z,6.82,2.13,-4.66,4.5,203.42,-1.11,114.07,-168.42
,,0,2025-11-18T17:40:14.357Z,7.02,2.44,-5.29,3.91,208.25,-12.31,111.69,-175.34
,,0,2025-11-18T17:40:14.367Z,7.63,2.66,-6.09,3.74,216.84,-16.58,113.89,-183.78
,,0,2025-11-18T17:40:14.377Z,7.51,2.52,-6.13,3.54,222.39,-19.73,109.82,-192.37
,,0,2025-11-18T17:40:14.387Z,6.88,2.5,-5.55,3.21,224.38,-31.71,105.31,-195.58
,,0,2025-11-18T17:40:14.397Z,7.24,2.43,-6.06,3.12,226.91,-47.46,101.53,-197.3
,,0,2025-11-18T17:40:14.407Z,8.03,2.54,-6.98,3.04,234.61,-57.98,99.54,-204.38
,,0,2025-11-18T17:40:14.417Z,8.34,2.29,-7.35,3.19,240.32,-67.13,97.73,-209.04
,,0,2025-11-18T17:40:14.427Z,8.41,1.84,-7.31,3.73,243.36,-79.66,94.85,-209.48
,,0,2025-11-18T17:40:14.437Z,8.64,1.53,-7.36,4.27,242.68,-86.66,91.02,-207.6
,,0,2025-11-18T17:40:14.447Z,9.3,1.57,-8.02,4.44,240.1,-91.73,83.24,-205.68
,,0,2025-11-18T17:40:14.457Z,9.89,1.7,-8.48,4.79,235.94,-90.85,83.18,-201.23
,,0,2025-11-18T17:40:14.467Z,10.03,1.33,-8.67,4.86,231.8,-88.34,80.56,-198.59
,,0,2025-11-18T17:40:14.477Z,9.72,0.69,-8.29,5.03,223.9,-90.92,78.67,-188.88
,,0,2025-11-18T17:40:14.487Z,9.47,0.16,-8.23,4.68,214.49,-98.25,73.95,-175.74
,,0,2025-11-18T17:40:14.497Z,9.44,0.2,-8.42,4.26,207.27,-104.04,71.17,-164.53
,,0,2025-11-18T17:40:14.507Z,9.51,0.23,-8.81,3.57,205.56,-108.34,69.84,-160.13
,,0,2025-11-18T17:40:14.517Z,9.46,-0.45,-9.04,2.77,206.25,-112.66,69.21,-158.3
,,0,2025-11-18T17:40:14.527Z,9.51,-1.52,-9.19,1.93,203.36,-110.5,64.13,-158.21
,,0,2025-11-18T17:40:14.537Z,9.29,-1.83,-9.01,1.34,198.77,-111.29,57.04,-154.5
,,0,2025-11-18T17:40:14.547Z,8.99,-2.07,-8.7,0.86,198.11,-118.06,49.66,-151.15
,,0,2025-11-18T17:40:14.557Z,9.39,-2.18,-9.13,0.35,201.7,-130.33,45.56,-147.05
,,0,2025-11-18T17:40:14.567Z,8.95,-2.31,-8.65,-0.18,206.42,-142.55,42.08,-143.24
,,0,2025-11-18T17:40:14.577Z,8.64,-2.37,-8.3,-0.34,209.96,-152.06,39.89,-139.17
,,0,2025-11-18T17:40:14.587Z,9.4,-2.37,-9.08,-0.59,209.99,-157.15,35.25,-134.75
,,0,2025-11-18T17:40:14.597Z,10.87,-2.59,-10.51,-1.07,201.75,-147.4,29.91,-134.47
,,0,2025-11-18T17:40:14.607Z,11.45,-2.77,-10.98,-1.67,196.72,-140.09,25.5,-135.73
,,0,2025-11-18T17:40:14.617Z,11.36,-3.33,-10.57,-2.5,191.41,-137.77,20.16,-131.34
,,0,2025-11-18T17:40:14.627Z,11.96,-4.06,-10.78,-3.22,192.62,-143.96,16.4,-126.92
,,0,2025-11-18T17:40:14.637Z,12.56,-4.64,-10.84,-4.32,197.34,-153.21,10.69,-123.92
,,0,2025-11-18T17:40:14.647Z,13.22,-4.73,-11.06,-5.5,203.28,-163.3,5.6,-120.93
,,0,2025-11-18T17:40:14.657Z,13.99,-4.82,-11.63,-6.09,205.89,-169.42,0.31,-117
,,0,2025-11-18T17:40:14.667Z,15.74,-4.58,-13.26,-7.14,201.43,-166.95,-12.24,-112.04
,,0,2025-11-18T17:40:14.677Z,16.14,-3.79,-13.84,-7.39,198.21,-167.6,-19.34,-104.04
,,0,2025-11-18T17:40:14.687Z,16.49,-3.47,-14.1,-7.81,196.61,-169.74,-26.77,-95.54
,,0,2025-11-18T17:40:14.697Z,16.4,-2.41,-13.65,-8.76,202.86,-181.34,-31.4,-85.34
,,0,2025-11-18T17:40:14.707Z,16.55,-1.25,-12.9,-10.28,220.75,-205.79,-33.97,-72.3
,,0,2025-11-18T17:40:14.717Z,16.87,-0.13,-11.06,-12.74,256.19,-249.18,-28.79,-52.08
,,0,2025-11-18T17:40:14.727Z,18.71,-0.17,-11.49,-14.76,257.24,-250.14,-38.66,-45.92
,,0,2025-11-18T17:40:14.737Z,21.9,0.2,-13.77,-17.03,257.96,-250.14,-47.31,-41.69
,,0,2025-11-18T17:40:14.747Z,23.47,1.57,-13.64,-19.03,261.64,-250.14,-61.21,-46.23
,,0,2025-11-18T17:40:14.757Z,23.27,2.47,-12.27,-19.62,264.39,-250.14,-70.17,-49.11
,,0,2025-11-18T17:40:14.767Z,22.46,3.23,-10.44,-19.62,270.51,-250.14,-90.73,-48.73
,,0,2025-11-18T17:40:14.777Z,22.49,4.99,-9.8,-19.62,279.04,-250.14,-113.04,-50.17
,,0,2025-11-18T17:40:14.787Z,23.42,7.18,-10.59,-19.62,294.8,-250.14,-147.13,-51.87
,,0,2025-11-18T17:40:14.797Z,25.17,11.7,-10.57,-19.62,309.6,-250.14,-173.78,-55.52
,,0,2025-11-18T17:40:14.807Z,26.39,14.91,-9.45,-19.62,327.24,-250.14,-200.71,-65.04
,,0,2025-11-18T17:40:14.817Z,28.31,18.63,-8.33,-19.62,360.86,-250.14,-243.37,-91.76
,,0,2025-11-18T17:40:14.827Z,28.52,19.62,-6.6,-19.62,374.57,-250.14,-250.14,-123.14
,,0,2025-11-18T17:40:14.837Z,27.94,19.62,-3.3,-19.62,387.41,-250.14,-250.14,-157.96
,,0,2025-11-18T17:40:14.847Z,27.75,19.62,0.08,-19.62,406.02,-250.14,-250.14,-199.29
,,0,2025-11-18T17:40:14.857Z,27.77,19.62,-1.23,-19.62,425.67,-250.14,-250.14,-236.77
,,0,2025-11-18T17:40:14.867Z,27.87,19.62,-2.62,-19.62,433.25,-250.14,-250.14,-250.14
,,0,2025-11-18T17:40:14.877Z,28.17,19.62,-4.84,-19.62,433.25,-250.14,-250.14,-250.14
,,0,2025-11-18T17:40:14.887Z,28.47,19.62,-6.37,-19.62,433.25,-250.14,-250.14,-250.14
,,0,2025-11-18T17:40:14.897Z,28.99,19.62,-8.38,-19.62,399.76,-186.19,-250.14,-250.14
,,0,2025-11-18T17:40:14.907Z,27.77,19.62,-12.49,-15.18,365.75,-92.95,-250.14,-250.14
,,0,2025-11-18T17:40:14.917Z,26.93,19.62,-16.28,-8.67,354.9,28.61,-250.14,-250.14
,,0,2025-11-18T17:40:14.927Z,28.07,19.62,-19.62,-4.23,397.43,181.15,-250.14,-250.14
,,0,2025-11-18T17:40:14.937Z,27.85,19.62,-19.62,-2.41,433.25,250.13,-250.14,-250.14
,,0,2025-11-18T17:40:14.947Z,28.61,19.62,-19.62,-6.99,433.25,250.13,-250.14,-250.14
,,0,2025-11-18T17:40:14.957Z,30.92,19.62,-19.62,-13.64,433.25,250.13,-250.14,-250.14
,,0,2025-11-18T17:40:14.967Z,33.98,19.62,-19.62,-19.62,433.25,250.13,-250.14,-250.14
,,0,2025-11-18T17:40:14.977Z,33.98,19.62,-19.62,-19.62,433.25,250.13,-250.14,-250.14
,,0,2025-11-18T17:40:14.987Z,33.55,18.87,-19.62,-19.62,433.25,250.13,-250.14,-250.14
,,0,2025-11-18T17:40:14.997Z,33.98,19.62,-19.62,-19.62,397.34,250.13,-250.14,-180.95
,,0,2025-11-18T17:40:15.007Z,32.78,19.62,-17.46,-19.62,364.63,250.13,-250.14,-88.44
,,0,2025-11-18T17:40:15.017Z,33.98,19.62,-19.62,-19.62,354.26,250.13,-250.14,19.21
,,0,2025-11-18T17:40:15.027Z,33.98,19.62,-19.62,-19.62,325.7,250.13,-178.35,108.2
,,0,2025-11-18T17:40:15.037Z,31.32,19.62,-14.53,-19.62,365.16,250.13,-127.37,233.56
,,0,2025-11-18T17:40:15.047Z,28.73,19.62,-7.46,-19.62,353.76,250.13,3.85,250.13
,,0,2025-11-18T17:40:15.057Z,28.92,19.62,-8.15,-19.62,372.92,250.13,118.08,250.13
,,0,2025-11-18T17:40:15.067Z,29.6,19.62,-10.3,-19.62,418.74,250.13,224.09,250.13
,,0,2025-11-18T17:40:15.077Z,27.79,19.62,-1.6,-19.62,433.24,250.13,250.13,250.13
,,0,2025-11-18T17:40:15.087Z,27.76,19.62,-0.89,-19.62,433.24,250.13,250.13,250.13
,,0,2025-11-18T17:40:15.097Z,27.76,19.62,-0.9,-19.62,433.24,250.13,250.13,250.13
,,0,2025-11-18T17:40:15.107Z,27.78,19.62,1.28,-19.62,433.24,250.13,250.13,250.13
,,0,2025-11-18T17:40:15.117Z,28.76,19.62,7.57,-19.62,433.24,250.13,250.13,250.13
,,0,2025-11-18T17:40:15.127Z,28.13,19.62,9.13,-17.97,433.24,250.13,250.13,250.13
,,0,2025-11-18T17:40:15.137Z,27.32,19.62,10.83,-15.62,423.61,250.13,233.06,250.13
,,0,2025-11-18T17:40:15.147Z,28.58,19.62,15.27,-14.1,418.32,250.13,223.3,250.13
,,0,2025-11-18T17:40:15.157Z,29.23,19.62,17.3,-13.04,382.76,193.31,215.81,250.13
,,0,2025-11-18T17:40:15.167Z,27.19,18.98,15.14,-12.25,349.78,139.11,201.07,250.13
,,0,2025-11-18T17:40:15.177Z,24.36,17.39,13.36,-10.61,313.69,110.83,179.64,232.05
,,0,2025-11-18T17:40:15.187Z,22.05,15.88,12.55,-8.73,279.9,94.1,169.19,202.15
,,0,2025-11-18T17:40:15.197Z,19.84,13.67,12.3,-7.45,261.55,88.13,163.75,183.93
,,0,2025-11-18T17:40:15.207Z,19.65,10.92,15.25,-5.85,240.42,61.56,153.27,174.69
,,0,2025-11-18T17:40:15.217Z,18.28,8.76,15.23,-5.03,208.81,26.85,153.54,138.95
,,0,2025-11-18T17:40:15.227Z,16.03,7.03,14.03,-3.29,175.4,-3.12,148.02,94.05
,,0,2025-11-18T17:40:15.237Z,15.78,6.3,14.34,-1.97,162.89,-33.77,153.05,44.37
,,0,2025-11-18T17:40:15.247Z,14.78,3.19,14.43,-0.37,162.19,-61.47,149.55,12.72
,,0,2025-11-18T17:40:15.257Z,16.77,-4.36,16.11,1.63,133.04,-105.59,80.26,10.46
,,0,2025-11-18T17:40:15.267Z,12.16,-3.9,10.04,5.65,132.35,-131.4,3.54,15.5
,,0,2025-11-18T17:40:15.277Z,12.73,-11.9,3.95,2.2,159.29,-69.56,-81.39,117.95
,,0,2025-11-18T17:40:15.287Z,8.99,-6.08,3.73,5.47,212.71,-53.18,-150.95,140.1
,,0,2025-11-18T17:40:15.297Z,12.34,4.24,10.07,5.73,176.58,-77.1,-149.47,53.79
,,0,2025-11-18T17:40:15.307Z,15.27,9.78,10.34,5.53,147.51,-121.02,-81.88,-20.25
,,0,2025-11-18T17:40:15.513Z,9.88,4.15,-5.1,7.37,263.88,-201.15,-40.24,-165.98
,,0,2025-11-18T17:40:15.522Z,10.16,4.75,-4.99,7.47,267.89,-203.82,-38.15,-169.61
,,0,2025-11-18T17:40:15.532Z,10.11,4.9,-4.81,7.43,272.81,-205.93,-32.04,-176.04
,,0,2025-11-18T17:40:15.542Z,10.04,4.88,-4.68,7.42,278.14,-209.64,-26.49,-180.86
,,0,2025-11-18T17:40:15.552Z,10.1,4.78,-5.13,7.27,282.88,-214.22,-20.65,-183.59
,,0,2025-11-18T17:40:15.562Z,10.45,4.55,-6.09,7.17,287.67,-217.82,-12.36,-187.5
,,0,2025-11-18T17:40:15.572Z,10.86,3.77,-6.98,7.42,290.36,-214.37,-2.98,-195.82
,,0,2025-11-18T17:40:15.582Z,10.74,2.79,-7.4,7.27,293.69,-210.76,1.61,-204.53
,,0,2025-11-18T17:40:15.592Z,10.76,1.91,-7.71,7.25,295.12,-210.24,0.59,-207.1
,,0,2025-11-18T17:40:15.602Z,11.16,1.93,-8.08,7.45,291.4,-207.55,-4.55,-204.49
,,0,2025-11-18T17:40:15.612Z,12.1,2.94,-8.78,7.79,283.99,-203.77,-9.6,-197.58
,,0,2025-11-18T17:40:15.622Z,13.31,4.02,-9.65,8.25,274.11,-194.29,-3.5,-193.33
,,0,2025-11-18T17:40:15.632Z,14.07,4.38,-10.35,8.46,270.06,-179.85,9.62,-201.23
,,0,2025-11-18T17:40:15.642Z,14.32,3.66,-10.51,9.01,271.33,-164.97,27.06,-213.71
,,0,2025-11-18T17:40:15.652Z,14.07,2.14,-10.11,9.54,272.59,-152.07,39.79,-222.71
,,0,2025-11-18T17:40:15.662Z,14.05,0.76,-9.79,10.04,267.98,-139.69,43.58,-224.5
,,0,2025-11-18T17:40:15.672Z,13.73,-0.01,-9.19,10.2,261.49,-137.6,40.61,-218.61
,,0,2025-11-18T17:40:15.682Z,13.57,-0.11,-8.89,10.25,249.85,-138.43,38.63,-204.37
,,0,2025-11-18T17:40:15.692Z,13.4,0.1,-8.91,10,239.9,-143.08,39,-188.56
,,0,2025-11-18T17:40:15.702Z,13.6,0.33,-8.88,10.29,237.74,-150.05,47.88,-178.09
,,0,2025-11-18T17:40:15.712Z,14.12,-0.62,-9,10.86,231.7,-143.69,60.18,-171.51
,,0,2025-11-18T17:40:15.722Z,14.83,-1.94,-9.43,11.28,221.25,-125.04,65.68,-170.31
,,0,2025-11-18T17:40:15.732Z,15.33,-3.14,-9.67,11.48,205.17,-105.87,57.63,-166.02
,,0,2025-11-18T17:40:15.742Z,15.25,-3.62,-9.02,11.76,187.74,-96.74,46.54,-154.02
,,0,2025-11-18T17:40:15.752Z,14.79,-3.36,-8.15,11.88,171.37,-95.9,38.32,-136.76
,,0,2025-11-18T17:40:15.762Z,14.44,-2.79,-7.87,11.79,159.58,-102.65,33.5,-117.5
,,0,2025-11-18T17:40:15.772Z,13.8,-2.41,-7.52,11.32,154.83,-113.57,31.09,-100.53
,,0,2025-11-18T17:40:15.782Z,13.22,-2.32,-7.52,10.63,154.94,-127.08,28.1,-84.08
,,0,2025-11-18T17:40:15.792Z,13.28,-2.25,-7.99,10.37,156.5,-139.55,25.76,-66
,,0,2025-11-18T17:40:15.802Z,13.84,-2.11,-9.58,9.75,139.78,-123.7,27.33,-59.06
,,0,2025-11-18T17:40:15.812Z,15.25,-1.6,-12.15,9.09,122.47,-106.83,11.64,-58.74
,,0,2025-11-18T17:40:15.822Z,14.77,-2.94,-12.64,7.07,106.98,-93.89,-6.25,-50.91
,,0,2025-11-18T17:40:15.832Z,16.33,-0.19,-13.9,8.56,89.55,-74.27,-0.34,-50.03
,,0,2025-11-18T17:40:15.842Z,16.45,-0.56,-13.98,8.65,70.18,-53.4,-9.01,-44.64
,,0,2025-11-18T17:40:15.852Z,15.49,-0.31,-12.88,8.59,58.6,-41.11,-17.06,-38.11
,,0,2025-11-18T17:40:15.862Z,14.26,0.49,-11.67,8.17,62.62,-45.49,-27.24,-33.31
,,0,2025-11-18T17:40:15.872Z,13.79,1.32,-11.35,7.71,65.99,-53.95,-23.7,-29.69
,,0,2025-11-18T17:40:15.882Z,14.69,1.87,-12.47,7.53,71.53,-60.7,-25.48,-27.98
,,0,2025-11-18T17:40:15.892Z,15.8,2.7,-13.72,7.35,77.02,-63.14,-28.35,-33.79
,,0,2025-11-18T17:40:15.902Z,16.32,3.57,-14.23,7.15,80.86,-60.72,-30.62,-43.76
,,0,2025-11-18T17:40:15.912Z,16.39,3.97,-14.42,6.71,83.89,-57.79,-31.54,-51.99
,,0,2025-11-18T17:40:15.922Z,16.07,3.86,-14.2,6.47,89.57,-57.95,-31.48,-60.61
,,0,2025-11-18T17:40:15.932Z,15.59,3.52,-13.8,6.33,97.46,-60.15,-32.4,-69.51
,,0,2025-11-18T17:40:15.942Z,14.34,2.81,-12.93,5.53,109.97,-70.95,-38.07,-74.91
,,0,2025-11-18T17:40:15.952Z,13.83,2.77,-12.32,5.64,120.3,-86.68,-37.69,-74.42
,,0,2025-11-18T17:40:15.962Z,13.66,2.7,-12.03,5.88,128.76,-98.25,-35.35,-75.34
,,0,2025-11-18T17:40:15.972Z,13.65,2.26,-11.96,6.18,128.62,-98.5,-34.63,-75.11
,,0,2025-11-18T17:40:15.982Z,13.64,1.69,-11.98,6.31,115.4,-81.5,-32.11,-75.14
,,0,2025-11-18T17:40:15.992Z,14.12,1.46,-12.3,6.78,99.49,-50.66,-27.66,-81.03
,,0,2025-11-18T17:40:16.002Z,13.55,0.87,-12.01,6.23,96.76,-14.75,-26.35,-91.93
,,0,2025-11-18T17:40:16.012Z,12.07,0.48,-10.32,6.23,106.7,12.49,-24.64,-103.06
,,0,2025-11-18T17:40:16.022Z,10.01,-0.13,-8,6.01,112.9,21.18,-25.12,-108.02
,,0,2025-11-18T17:40:16.032Z,8.36,-0.06,-6.14,5.67,108.58,19.98,-21.02,-104.63
,,0,2025-11-18T17:40:16.042Z,7.6,-0.17,-5.26,5.49,102.81,10.24,-23.41,-99.58
,,0,2025-11-18T17:40:16.052Z,6.79,-0.12,-4.46,5.12,99.08,-5.8,-19.4,-96.99
,,0,2025-11-18T17:40:16.062Z,6.56,0.05,-4.13,5.09,97.53,-20,-14.04,-94.42
,,0,2025-11-18T17:40:16.072Z,7.22,0.43,-4.56,5.59,91.64,-23.82,-4.02,-88.4
,,0,2025-11-18T17:40:16.082Z,7.43,0.4,-5.27,5.23,83.34,-13.91,5.76,-81.97
,,0,2025-11-18T17:40:16.092Z,7.38,-0.23,-5.42,5,75.16,-2.13,9.77,-74.49
,,0,2025-11-18T17:40:16.102Z,6.52,-0.94,-4.35,4.76,64.98,5.28,12.19,-63.6
,,0,2025-11-18T17:40:16.112Z,5.79,-1.17,-3.45,4.49,49.89,7.17,11.5,-48.02
,,0,2025-11-18T17:40:16.122Z,4.94,-1.03,-2.63,4.05,32.73,2.95,12.03,-30.29
,,0,2025-11-18T17:40:16.132Z,4.41,-0.61,-2.09,3.83,22.91,-1.27,12.64,-19.07
,,0,2025-11-18T17:40:16.142Z,4.24,-0.31,-2.08,3.68,18.12,-3.59,14.8,-9.81
,,0,2025-11-18T17:40:16.152Z,4.28,-0.33,-2.66,3.34,16.39,-1.31,15.53,-5.08
,,0,2025-11-18T17:40:16.162Z,4.6,-0.16,-2.91,3.56,18.08,-0.05,18.08,0.32
,,0,2025-11-18T17:40:16.172Z,4.39,-0.24,-2.4,3.67,19.73,-1.38,19.04,4.98
,,0,2025-11-18T17:40:16.182Z,4.03,-0.4,-1.89,3.54,23.65,-5.61,19.97,11.35
,,0,2025-11-18T17:40:16.192Z,4.16,-0.5,-2.22,3.48,29.22,-6.31,20.93,19.38
,,0,2025-11-18T17:40:16.202Z,5.42,-0.04,-3.74,3.93,35.46,-6.47,23.79,25.5
,,0,2025-11-18T17:40:16.212Z,6.8,0.35,-5.12,4.46,36.58,-2.02,25.59,26.06
,,0,2025-11-18T17:40:16.222Z,7.9,0.62,-5.94,5.18,36.88,8.49,25.75,25
,,0,2025-11-18T17:40:16.232Z,9.27,0.84,-7.28,5.67,42.7,30.27,24.3,17.79
,,0,2025-11-18T17:40:16.242Z,11.4,1.57,-9.58,5.97,52.18,48.11,17.86,9.44
,,0,2025-11-18T17:40:16.252Z,13.1,2.36,-10.83,6.98,58.4,57.2,11.78,-0.25
,,0,2025-11-18T17:40:16.262Z,14.18,3.05,-11.45,7.79,58.2,56.72,6.73,-11.19
,,0,2025-11-18T17:40:16.272Z,15.18,3.47,-12.13,8.44,50.63,47.75,1.96,-16.73
,,0,2025-11-18T17:40:16.282Z,15.81,3.78,-12.29,9.2,37.15,29.94,-5.04,-21.4
,,0,2025-11-18T17:40:16.292Z,16.84,4.53,-12.71,10.08,27.38,5.47,-13.08,-23.42
,,0,2025-11-18T17:40:16.302Z,19.16,6.33,-14.16,11.24,31.96,-15.43,-13.48,-24.53
,,0,2025-11-18T17:40:16.312Z,21.96,8.44,-16.52,11.75,39.61,-23.58,-15.8,-27.63
,,0,2025-11-18T17:40:16.322Z,23.63,10.04,-18.14,11.34,41.55,-17.17,-18.02,-33.27
,,0,2025-11-18T17:40:16.332Z,24.15,9.65,-19.23,10.98,45.38,1.47,-23.02,-39.08
,,0,2025-11-18T17:40:16.342Z,20.67,8.29,-15.67,10.62,25.08,9.17,-12.37,-19.79
,,0,2025-11-18T17:40:16.352Z,18.18,7.06,-13.57,9.82,26.46,5.31,-24.69,-7.92
,,0,2025-11-18T17:40:16.362Z,19.05,7.07,-14.9,9.54,46.45,10.29,-39.96,-21.34
,,0,2025-11-18T17:40:16.372Z,17.28,6.67,-13.17,9,55.31,17.41,-47.69,-21.95
,,0,2025-11-18T17:40:16.382Z,14.88,6.98,-10.11,8.39,59.3,11.36,-45.66,-36.09
,,0,2025-11-18T17:40:16.392Z,13.26,6.56,-8.03,8.26,46.67,-4.89,-33.13,-32.5
,,0,2025-11-18T17:40:16.402Z,11.99,5.02,-7.17,8.2,33.55,-17.98,-22.92,-16.63
,,0,2025-11-18T17:40:16.412Z,11.23,3.79,-6.84,8.07,33.38,-22.53,-23.47,-7.45
,,0,2025-11-18T17:40:16.422Z,10.68,3.4,-6.19,8.01,27.01,-16.4,-21.42,-1.27
,,0,2025-11-18T17:40:16.432Z,10.75,3.53,-6.62,7.7,18.06,3.85,-17.64,-0.39
,,0,2025-11-18T17:40:16.442Z,10.64,3.24,-7.28,7.05,40.87,38.73,-12.15,-4.85
,,0,2025-11-18T17:40:16.452Z,9.34,1.78,-6.38,6.59,61.48,57.65,-17.79,-11.82
,,0,2025-11-18T17:40:16.462Z,7.76,1.09,-3.93,6.6,64.48,61.27,-15.78,-12.47
,,0,2025-11-18T17:40:16.472Z,6.56,-0.02,-1.2,6.45,60.82,56.34,-14.67,17.59
,,0,2025-11-18T17:40:16.482Z,6.33,0.15,-1,6.25,56.92,45.07,-12.86,32.3
,,0,2025-11-18T17:40:16.492Z,6.15,0.73,-1.88,5.81,48.67,35.94,-11.51,30.74
,,0,2025-11-18T17:40:16.502Z,6.44,1.41,-2.37,5.82,31.12,26.25,-9.66,13.63
,,0,2025-11-18T17:40:16.512Z,6.18,1.31,-2.09,5.67,15.12,14.37,-4.5,1.38
,,0,2025-11-18T17:40:16.522Z,7.14,1.46,-2.99,6.32,12.34,9.31,7.99,-1.32
,,0,2025-11-18T17:40:16.532Z,8.73,1.17,-6.2,6.03,35.48,32.94,12.31,-4.68
,,0,2025-11-18T17:40:16.542Z,10.6,1.36,-8.32,6.44,66.65,65.03,14.18,-3.46
,,0,2025-11-18T17:40:16.552Z,10.08,1.46,-7.78,6.24,93.28,93.02,6.55,-2.47
,,0,2025-11-18T17:40:16.562Z,8.72,1.82,-6.2,5.85,108.97,108.79,3.49,-5.33
,,0,2025-11-18T17:40:16.572Z,8.22,2.49,-5.18,5.88,106.78,106.3,4.29,-9.23
,,0,2025-11-18T17:40:16.582Z,8.12,2.97,-4.59,5.99,95.34,94.18,5.83,-13.61
,,0,2025-11-18T17:40:16.592Z,8.29,3.45,-4.34,6.16,79.23,76.28,10.75,-18.53
,,0,2025-11-18T17:40:16.602Z,8.65,3.74,-4.25,6.54,65.66,60.47,16.95,-19.15
,,0,2025-11-18T17:40:16.612Z,9.23,3.96,-4.47,7.04,62.01,52.89,23.41,-22.34
,,0,2025-11-18T17:40:16.622Z,9.81,4.17,-5.26,7.16,63.17,50,23.66,-30.51
,,0,2025-11-18T17:40:16.632Z,10.52,4.34,-5.61,7.76,56.61,40.85,25.21,-30.01
,,0,2025-11-18T17:40:16.642Z,10.93,4.69,-5.67,8.08,50.15,30.74,26.77,-29.21
,,0,2025-11-18T17:40:16.652Z,11.27,4.92,-5.92,8.23,45.99,21.93,27.12,-29.98
,,0,2025-11-18T17:40:16.662Z,11.44,5.1,-6.01,8.29,42.34,13.11,27.33,-29.56
,,0,2025-11-18T17:40:16.672Z,11.76,5.53,-6.32,8.23,46.34,9.94,31.96,-32.05
,,0,2025-11-18T17:40:16.682Z,11.65,5.38,-6.95,7.65,48.61,8.67,31.6,-35.91
,,0,2025-11-18T17:40:16.692Z,11.24,5.06,-6.66,7.5,47.53,8.7,31,-34.96
,,0,2025-11-18T17:40:16.702Z,10.64,4.87,-6.21,7.14,45.77,10.08,28.31,-34.52
,,0,2025-11-18T17:40:16.712Z,10.57,5.02,-6.04,7.07,44.22,8.83,27.36,-33.6
,,0,2025-11-18T17:40:16.722Z,10.51,4.92,-6,7.09,40.64,4.48,25.69,-31.17
,,0,2025-11-18T17:40:16.732Z,10.46,4.71,-5.93,7.22,37.92,-1.59,24.08,-29.25
,,0,2025-11-18T17:40:16.742Z,10.33,4.75,-5.53,7.32,36.74,-7.73,22.56,-27.94
,,0,2025-11-18T17:40:16.752Z,10.4,4.83,-5.38,7.48,38.15,-7.97,23.85,-28.69
,,0,2025-11-18T17:40:16.762Z,10.2,4.72,-5.19,7.41,39.14,-3.99,24.01,-30.65
,,0,2025-11-18T17:40:16.772Z,9.73,4.41,-4.85,7.19,39.27,-0.23,23.62,-31.37
,,0,2025-11-18T17:40:16.782Z,9.22,4.04,-4.32,7.07,37.73,2.76,22.48,-30.18
,,0,2025-11-18T17:40:16.792Z,8.8,3.86,-3.87,6.9,36.43,2.11,20.57,-29.98
,,0,2025-11-18T17:40:16.802Z,8.71,3.81,-3.69,6.91,36.47,-1.69,20.17,-30.34
,,0,2025-11-18T17:40:16.812Z,8.76,3.88,-3.62,6.97,38.28,-7.53,21.21,-30.96
,,0,2025-11-18T17:40:16.822Z,8.75,3.78,-3.7,6.97,43.45,-11.01,23.51,-34.84
,,0,2025-11-18T17:40:16.832Z,8.89,3.77,-4.02,6.98,49.58,-8.98,26.05,-41.22
,,0,2025-11-18T17:40:16.842Z,8.81,3.54,-4.27,6.84,55.36,0.24,25.58,-49.09
,,0,2025-11-18T17:40:16.852Z,8.58,3.4,-3.68,6.97,60.66,4.67,25.44,-54.86
,,0,2025-11-18T17:40:16.862Z,8.3,3.43,-2.9,6.98,63.72,1.26,24.53,-58.79
,,0,2025-11-18T17:40:16.872Z,8.44,3.78,-2.48,7.13,68.53,-7.59,26.27,-62.83
,,0,2025-11-18T17:40:16.882Z,8.92,4.3,-2.64,7.36,77.72,-20.06,30.55,-68.59
,,0,2025-11-18T17:40:16.892Z,10.21,5.12,-3.47,8.12,90.81,-29.96,39.88,-75.89
,,0,2025-11-18T17:40:16.902Z,11.52,5.58,-4.97,8.76,104.4,-30.37,47.4,-87.92
,,0,2025-11-18T17:40:16.912Z,12.35,6.01,-5.47,9.3,115.91,-25.56,51.85,-100.47
,,0,2025-11-18T17:40:16.922Z,12.74,6.61,-5.12,9.61,126.25,-18.06,55.16,-112.12
