#group,FALSE,FALSE,FALSE,FALSE,FALSE,FALSE,FALSE,FALSE,FALSE,FALSE,FALSE
#datatype,string,long,dateTime:RFC3339,double,double,double,double,double,double,double,double
#default,_result,,,,,,,,,,
,result,table,_time,Amag,Ax,Ay,Az,Gmag,Gx,Gy,Gz
,,0,2025-11-18T17:50:29.791Z,10.06,9.39,-3.24,1.57,3.35,2.32,-1.1,-2.15
,,0,2025-11-18T17:50:29.852Z,10.03,9.37,-3.21,1.57,2.26,1.78,1.29,-0.51
,,0,2025-11-18T17:50:29.861Z,10.1,9.41,-3.25,1.74,2.61,1.68,1.98,-0.18
,,0,2025-11-18T17:50:29.871Z,10.09,9.4,-3.23,1.74,3.38,1.81,2.82,0.44
,,0,2025-11-18T17:50:29.881Z,10.06,9.42,-3.09,1.67,3.63,1.56,3.18,0.81
,,0,2025-11-18T17:50:29.891Z,10.04,9.43,-3.06,1.6,4.53,0.82,4.27,1.27
,,0,2025-11-18T17:50:29.901Z,9.97,9.38,-3,1.56,5.51,0.2,5.33,1.4
,,0,2025-11-18T17:50:29.911Z,9.91,9.32,-2.99,1.51,6.05,-0.88,5.76,1.63
,,0,2025-11-18T17:50:29.921Z,9.78,9.21,-2.94,1.48,6.95,-1.36,6.63,1.57
,,0,2025-11-18T17:50:29.931Z,9.76,9.17,-2.97,1.55,6.81,-1.85,6.43,1.26
,,0,2025-11-18T17:50:29.941Z,9.73,9.13,-2.95,1.59,6.68,-2.11,6.24,1.05
,,0,2025-11-18T17:50:29.951Z,9.67,9.08,-2.91,1.61,6.77,-2.5,6.27,0.56
,,0,2025-11-18T17:50:29.961Z,9.66,9.06,-2.95,1.61,6.89,-3.02,6.19,0.05
,,0,2025-11-18T17:50:29.971Z,9.59,8.99,-2.93,1.59,6.59,-3.09,5.79,-0.53
,,0,2025-11-18T17:50:29.981Z,9.53,8.89,-2.99,1.65,6.04,-3.02,5.07,-1.31
,,0,2025-11-18T17:50:29.991Z,9.52,8.91,-3.02,1.47,5.2,-2.58,4.08,-1.95
,,0,2025-11-18T17:50:30.001Z,9.5,8.88,-3.02,1.51,4.71,-2.39,3.07,-2.66
,,0,2025-11-18T17:50:30.011Z,9.55,8.92,-3.05,1.55,4.49,-1.8,2.32,-3.39
,,0,2025-11-18T17:50:30.021Z,9.61,8.98,-3.09,1.48,4.47,-1.69,1.44,-3.89
,,0,2025-11-18T17:50:30.031Z,9.65,9.01,-3.08,1.53,5.12,-1.51,0.59,-4.85
,,0,2025-11-18T17:50:30.041Z,9.71,9.09,-3.07,1.51,5.65,-1.23,0,-5.52
,,0,2025-11-18T17:50:30.051Z,9.81,9.18,-3.13,1.51,6.38,-0.95,-0.51,-6.29
,,0,2025-11-18T17:50:30.061Z,9.86,9.21,-3.19,1.51,6.71,-0.53,-0.45,-6.67
,,0,2025-11-18T17:50:30.071Z,9.83,9.19,-3.2,1.4,7.85,-0.93,-0.63,-7.77
,,0,2025-11-18T17:50:30.081Z,9.96,9.29,-3.29,1.39,8.15,-0.43,-0.58,-8.11
,,0,2025-11-18T17:50:30.091Z,9.93,9.28,-3.25,1.44,8.1,-0.28,-0.82,-8.05
,,0,2025-11-18T17:50:30.101Z,10.06,9.41,-3.23,1.45,8.69,-0.76,-0.57,-8.64
,,0,2025-11-18T17:50:30.111Z,10.07,9.42,-3.25,1.44,8.19,-1.24,-0.11,-8.09
,,0,2025-11-18T17:50:30.121Z,10.02,9.37,-3.23,1.46,7.26,-2.08,-0.16,-6.95
,,0,2025-11-18T17:50:30.131Z,9.97,9.33,-3.21,1.43,7.21,-3.11,0.52,-6.48
,,0,2025-11-18T17:50:30.141Z,9.94,9.29,-3.24,1.4,6.56,-3.58,0.99,-5.4
,,0,2025-11-18T17:50:30.151Z,9.88,9.2,-3.31,1.39,6.17,-4.21,0.98,-4.4
,,0,2025-11-18T17:50:30.161Z,9.86,9.16,-3.33,1.45,5.83,-4.09,1.53,-3.86
,,0,2025-11-18T17:50:30.171Z,9.82,9.14,-3.31,1.44,5.5,-3.76,1.93,-3.53
,,0,2025-11-18T17:50:30.181Z,9.74,9.04,-3.33,1.47,4.85,-3.56,1.32,-3.01
,,0,2025-11-18T17:50:30.191Z,9.67,8.99,-3.27,1.37,3.81,-2.83,0.69,-2.46
,,0,2025-11-18T17:50:30.201Z,9.72,9.02,-3.3,1.51,3.62,-2.67,-0.24,-2.43
,,0,2025-11-18T17:50:30.211Z,9.69,9.01,-3.26,1.45,3.57,-1.94,-0.47,-2.96
,,0,2025-11-18T17:50:30.221Z,9.7,9.02,-3.25,1.46,4.06,-1.06,-1.42,-3.65
,,0,2025-11-18T17:50:30.231Z,9.67,8.94,-3.34,1.52,4.88,-0.37,-1.37,-4.67
,,0,2025-11-18T17:50:30.241Z,9.72,8.86,-3.67,1.58,6.37,1.5,-2.85,-5.5
,,0,2025-11-18T17:50:30.251Z,9.84,8.93,-3.81,1.59,8.27,3.5,-5.05,-5.54
,,0,2025-11-18T17:50:30.261Z,9.94,9.06,-3.77,1.63,9.45,5.44,-5.76,-5.15
,,0,2025-11-18T17:50:30.271Z,9.91,9.11,-3.58,1.57,10.04,6.4,-5.94,-4.96
,,0,2025-11-18T17:50:30.281Z,9.87,9.07,-3.58,1.5,9.3,6.29,-5.18,-4.47
,,0,2025-11-18T17:50:30.291Z,9.92,9.07,-3.68,1.57,9.21,6.33,-5.58,-3.69
,,0,2025-11-18T17:50:30.301Z,9.91,9.04,-3.76,1.56,9.23,6.45,-6.22,-2.2
,,0,2025-11-18T17:50:30.311Z,9.87,9.02,-3.71,1.53,9.45,6.6,-6.64,-1.24
,,0,2025-11-18T17:50:30.321Z,9.9,9.09,-3.64,1.44,8.86,6.26,-6.27,-0.01
,,0,2025-11-18T17:50:30.331Z,9.91,9.12,-3.59,1.46,7.79,5.47,-5.51,0.63
,,0,2025-11-18T17:50:30.341Z,9.8,9.05,-3.47,1.46,6.39,4.2,-4.66,1.21
,,0,2025-11-18T17:50:30.351Z,9.82,9.06,-3.45,1.51,5.23,3.15,-3.93,1.4
,,0,2025-11-18T17:50:30.361Z,9.82,9.05,-3.48,1.56,5.33,2.26,-4.24,2.31
,,0,2025-11-18T17:50:30.371Z,9.84,9.07,-3.49,1.55,5.75,1.85,-4.73,2.7
,,0,2025-11-18T17:50:30.381Z,9.92,9.18,-3.42,1.57,5.68,1.5,-4.43,3.23
,,0,2025-11-18T17:50:30.391Z,9.98,9.24,-3.4,1.61,5.21,0.89,-4.33,2.76
,,0,2025-11-18T17:50:30.401Z,9.99,9.28,-3.38,1.52,4.84,0.73,-3.98,2.65
,,0,2025-11-18T17:50:30.411Z,9.99,9.29,-3.37,1.48,4.45,0.03,-3.69,2.5
,,0,2025-11-18T17:50:30.421Z,9.98,9.3,-3.32,1.42,3.85,0.15,-3.1,2.28
,,0,2025-11-18T17:50:30.431Z,10,9.31,-3.36,1.43,3.89,-0.12,-3.05,2.4
,,0,2025-11-18T17:50:30.441Z,9.96,9.3,-3.3,1.37,3.56,-0.25,-2.81,2.18
,,0,2025-11-18T17:50:30.451Z,9.94,9.28,-3.22,1.48,3.43,-0.31,-2.66,2.15
,,0,2025-11-18T17:50:30.461Z,9.93,9.3,-3.15,1.49,3.21,-0.54,-2.47,1.97
,,0,2025-11-18T17:50:30.471Z,9.94,9.27,-3.21,1.58,2.83,-0.6,-1.89,2.02
,,0,2025-11-18T17:50:30.481Z,9.91,9.27,-3.17,1.49,2.62,-0.65,-1.94,1.64
,,0,2025-11-18T17:50:30.491Z,9.85,9.21,-3.17,1.47,2.64,-0.46,-2.34,1.14
,,0,2025-11-18T17:50:30.501Z,9.89,9.26,-3.17,1.42,2.62,-0.17,-2.6,0.32
,,0,2025-11-18T17:50:30.511Z,9.92,9.28,-3.15,1.48,2.99,0.12,-2.87,-0.82
,,0,2025-11-18T17:50:30.521Z,9.93,9.3,-3.15,1.46,2.75,0.85,-2.32,-1.2
,,0,2025-11-18T17:50:30.531Z,9.88,9.25,-3.11,1.53,3.48,1.38,-2.16,-2.35
,,0,2025-11-18T17:50:30.541Z,9.87,9.25,-3.08,1.51,4.43,1.37,-2.38,-3.47
,,0,2025-11-18T17:50:30.551Z,9.87,9.28,-3.03,1.47,4.94,1.2,-2.73,-3.95
,,0,2025-11-18T17:50:30.561Z,9.85,9.24,-3.08,1.46,5.71,0.82,-2.66,-4.98
,,0,2025-11-18T17:50:30.571Z,9.89,9.3,-3.05,1.4,6.31,1.01,-2.73,-5.6
,,0,2025-11-18T17:50:30.581Z,9.86,9.28,-3.03,1.42,6.84,0.35,-2.54,-6.34
,,0,2025-11-18T17:50:30.591Z,9.91,9.36,-2.99,1.29,7.06,-0.57,-1.84,-6.79
,,0,2025-11-18T17:50:30.601Z,9.88,9.32,-2.98,1.38,7.67,-1.44,-1.24,-7.43
,,0,2025-11-18T17:50:30.611Z,9.91,9.32,-3.05,1.43,8.37,-2.67,-0.92,-7.88
,,0,2025-11-18T17:50:30.621Z,9.91,9.33,-3.04,1.4,8.59,-3.42,-0.47,-7.87
,,0,2025-11-18T17:50:30.631Z,9.84,9.26,-3.07,1.36,9.04,-4.55,-0.28,-7.8
,,0,2025-11-18T17:50:30.641Z,9.83,9.24,-3.07,1.35,9.46,-5.12,0.05,-7.95
,,0,2025-11-18T17:50:30.651Z,9.88,9.27,-3.12,1.4,10.36,-5.66,0.11,-8.68
,,0,2025-11-18T17:50:30.661Z,9.85,9.21,-3.21,1.37,10.71,-5.92,0.22,-8.92
,,0,2025-11-18T17:50:30.671Z,9.88,9.24,-3.23,1.38,11.21,-5.89,0.06,-9.53
,,0,2025-11-18T17:50:30.681Z,9.9,9.25,-3.27,1.34,11.81,-6.14,-0.47,-10.08
,,0,2025-11-18T17:50:30.691Z,9.95,9.28,-3.31,1.38,12.24,-5.7,-0.69,-10.81
,,0,2025-11-18T17:50:30.701Z,10,9.34,-3.3,1.37,12.74,-5.3,-0.27,-11.58
,,0,2025-11-18T17:50:30.711Z,10,9.35,-3.29,1.32,13.07,-5.24,0,-11.98
,,0,2025-11-18T17:50:30.721Z,9.96,9.31,-3.27,1.38,13.78,-5.88,-0.04,-12.46
,,0,2025-11-18T17:50:30.731Z,9.95,9.29,-3.31,1.31,14.1,-6.02,0.44,-12.74
,,0,2025-11-18T17:50:30.741Z,9.92,9.26,-3.31,1.34,14.04,-5.79,0.67,-12.77
,,0,2025-11-18T17:50:30.751Z,9.9,9.23,-3.31,1.33,14.34,-6.18,0.98,-12.9
,,0,2025-11-18T17:50:30.761Z,9.88,9.19,-3.38,1.34,13.99,-6.24,1.14,-12.47
,,0,2025-11-18T17:50:30.771Z,9.87,9.19,-3.36,1.27,14.11,-6.6,1.31,-12.4
,,0,2025-11-18T17:50:30.781Z,9.86,9.17,-3.35,1.42,13.97,-7.03,1.47,-11.98
,,0,2025-11-18T17:50:30.791Z,9.84,9.13,-3.39,1.39,13.7,-7.05,1.4,-11.66
,,0,2025-11-18T17:50:30.801Z,9.88,9.17,-3.4,1.41,13.25,-7.08,1.55,-11.1
,,0,2025-11-18T17:50:30.811Z,9.92,9.21,-3.4,1.41,13.02,-6.85,1.79,-10.92
,,0,2025-11-18T17:50:30.821Z,9.86,9.14,-3.39,1.42,13.13,-7.36,1.66,-10.75
,,0,2025-11-18T17:50:30.831Z,9.91,9.2,-3.42,1.37,12.72,-6.95,1.43,-10.55
,,0,2025-11-18T17:50:30.841Z,9.89,9.16,-3.46,1.35,12.42,-6.76,1.63,-10.28
,,0,2025-11-18T17:50:30.851Z,9.92,9.21,-3.42,1.4,12.13,-6.57,1.71,-10.05
,,0,2025-11-18T17:50:30.861Z,9.94,9.23,-3.43,1.34,12.01,-6.77,2.38,-9.63
,,0,2025-11-18T17:50:30.871Z,9.93,9.24,-3.42,1.29,12.06,-6.84,2.64,-9.57
,,0,2025-11-18T17:50:30.881Z,9.91,9.22,-3.4,1.29,11.79,-7.24,2.82,-8.87
,,0,2025-11-18T17:50:30.891Z,9.93,9.22,-3.44,1.32,11.86,-7.79,2.9,-8.46
,,0,2025-11-18T17:50:30.901Z,9.92,9.21,-3.46,1.28,11.49,-7.99,2.92,-7.72
,,0,2025-11-18T17:50:30.911Z,9.93,9.24,-3.45,1.24,11.24,-7.95,3.1,-7.31
,,0,2025-11-18T17:50:30.921Z,9.92,9.2,-3.47,1.31,10.68,-7.67,3.11,-6.76
,,0,2025-11-18T17:50:30.931Z,9.93,9.19,-3.51,1.38,10.07,-7.23,3.34,-6.16
,,0,2025-11-18T17:50:30.941Z,9.9,9.15,-3.52,1.39,9.36,-6.67,3.42,-5.61
,,0,2025-11-18T17:50:30.951Z,9.89,9.15,-3.48,1.39,8.39,-6.02,2.91,-5.07
,,0,2025-11-18T17:50:30.961Z,9.89,9.15,-3.49,1.34,7.4,-5.5,2.43,-4.31
,,0,2025-11-18T17:50:30.971Z,9.95,9.22,-3.49,1.38,6.47,-4.72,2.11,-3.89
,,0,2025-11-18T17:50:30.981Z,9.91,9.18,-3.47,1.34,5.37,-3.71,1.77,-3.46
,,0,2025-11-18T17:50:30.991Z,9.94,9.22,-3.47,1.37,4.91,-3.11,1.96,-3.25
,,0,2025-11-18T17:50:31.001Z,9.95,9.25,-3.38,1.42,4.76,-2.95,2.18,-3.04
,,0,2025-11-18T17:50:31.011Z,9.9,9.21,-3.37,1.38,4.78,-2.74,2.58,-2.95
,,0,2025-11-18T17:50:31.021Z,9.89,9.19,-3.37,1.4,4.17,-2.61,2.34,-2.25
,,0,2025-11-18T17:50:31.031Z,9.84,9.14,-3.37,1.38,3.99,-2.76,2.19,-1.87
,,0,2025-11-18T17:50:31.041Z,9.85,9.16,-3.33,1.41,3.83,-2.86,2.05,-1.5
,,0,2025-11-18T17:50:31.051Z,9.84,9.17,-3.3,1.36,3.68,-2.88,1.69,-1.55
,,0,2025-11-18T17:50:31.061Z,9.89,9.23,-3.3,1.35,3.63,-2.8,1.84,-1.4
,,0,2025-11-18T17:50:31.071Z,9.94,9.24,-3.37,1.42,3.57,-2.65,1.76,-1.63
,,0,2025-11-18T17:50:31.081Z,9.91,9.24,-3.29,1.42,3.38,-2.31,1.97,-1.47
,,0,2025-11-18T17:50:31.091Z,9.89,9.21,-3.29,1.45,3.27,-1.82,1.96,-1.87
,,0,2025-11-18T17:50:31.101Z,9.93,9.26,-3.29,1.45,3.04,-1.31,1.89,-1.99
,,0,2025-11-18T17:50:31.111Z,9.89,9.22,-3.27,1.43,2.93,-1.07,1.56,-2.24
,,0,2025-11-18T17:50:31.121Z,9.87,9.2,-3.28,1.4,3.01,-0.89,1.17,-2.63
,,0,2025-11-18T17:50:31.131Z,9.85,9.2,-3.27,1.33,3.05,-0.5,1.29,-2.72
,,0,2025-11-18T17:50:31.141Z,9.89,9.25,-3.19,1.42,3.52,-1.16,1.56,-2.93
,,0,2025-11-18T17:50:31.151Z,9.86,9.24,-3.14,1.41,3.53,-1.41,2.03,-2.52
,,0,2025-11-18T17:50:31.161Z,9.92,9.28,-3.21,1.43,4.22,-2.02,2.66,-2.57
,,0,2025-11-18T17:50:31.171Z,9.87,9.25,-3.17,1.35,4.4,-2.81,2.5,-2.28
,,0,2025-11-18T17:50:31.181Z,9.9,9.25,-3.21,1.4,4.85,-3.14,2.92,-2.27
,,0,2025-11-18T17:50:31.191Z,9.93,9.28,-3.25,1.37,4.75,-3.06,2.73,-2.4
,,0,2025-11-18T17:50:31.201Z,9.87,9.22,-3.26,1.29,5.02,-3.4,2.87,-2.31
,,0,2025-11-18T17:50:31.211Z,9.81,9.18,-3.22,1.29,5,-3.03,3.01,-2.6
,,0,2025-11-18T17:50:31.221Z,9.79,9.15,-3.23,1.29,4.65,-2.68,2.75,-2.62
,,0,2025-11-18T17:50:31.231Z,9.8,9.17,-3.18,1.33,4.25,-2.28,2.52,-2.56
,,0,2025-11-18T17:50:31.241Z,9.8,9.16,-3.22,1.34,4.08,-2.2,1.84,-2.91
,,0,2025-11-18T17:50:31.251Z,9.82,9.21,-3.16,1.32,4.11,-2.18,1.82,-2.96
,,0,2025-11-18T17:50:31.261Z,9.78,9.16,-3.19,1.27,4.57,-2.47,1.86,-3.37
,,0,2025-11-18T17:50:31.271Z,9.8,9.17,-3.19,1.33,4.4,-2.12,1.6,-3.5
,,0,2025-11-18T17:50:31.281Z,9.77,9.16,-3.15,1.25,4.57,-2.28,1.24,-3.76
,,0,2025-11-18T17:50:31.291Z,9.79,9.16,-3.18,1.32,4.92,-2.04,1.23,-4.31
,,0,2025-11-18T17:50:31.301Z,9.79,9.16,-3.2,1.3,4.9,-2.09,1.18,-4.27
,,0,2025-11-18T17:50:31.311Z,9.77,9.14,-3.19,1.3,5.05,-1.74,1.08,-4.62
,,0,2025-11-18T17:50:31.321Z,9.81,9.17,-3.19,1.37,5.36,-1.5,0.75,-5.09
,,0,2025-11-18T17:50:31.331Z,9.78,9.15,-3.2,1.28,5.5,-1.6,0.69,-5.21
,,0,2025-11-18T17:50:31.341Z,9.8,9.17,-3.24,1.25,5.87,-1.87,0.7,-5.52
,,0,2025-11-18T17:50:31.351Z,9.82,9.18,-3.23,1.31,6,-2.08,0.24,-5.62
,,0,2025-11-18T17:50:31.361Z,9.81,9.18,-3.19,1.32,6.05,-2.38,0.5,-5.53
,,0,2025-11-18T17:50:31.371Z,9.88,9.26,-3.21,1.29,6.11,-2.42,0.52,-5.59
,,0,2025-11-18T17:50:31.381Z,9.92,9.29,-3.23,1.3,6.17,-2.69,0.28,-5.55
,,0,2025-11-18T17:50:31.391Z,9.88,9.25,-3.25,1.21,6.13,-2.66,0.79,-5.47
,,0,2025-11-18T17:50:31.401Z,9.86,9.22,-3.25,1.25,6.44,-3.12,1.11,-5.52
,,0,2025-11-18T17:50:31.411Z,9.82,9.18,-3.23,1.3,6.02,-2.85,1.01,-5.21
,,0,2025-11-18T17:50:31.421Z,9.87,9.24,-3.25,1.25,6.47,-3.75,0.7,-5.22
,,0,2025-11-18T17:50:31.431Z,9.93,9.27,-3.29,1.33,6.29,-3.66,1.21,-4.96
,,0,2025-11-18T17:50:31.441Z,9.91,9.26,-3.28,1.24,6.48,-3.99,1.27,-4.95
,,0,2025-11-18T17:50:31.451Z,9.9,9.24,-3.27,1.36,6.29,-3.56,1.36,-5
,,0,2025-11-18T17:50:31.461Z,9.88,9.23,-3.28,1.35,6.33,-3.65,1.95,-4.79
,,0,2025-11-18T17:50:31.471Z,9.89,9.24,-3.27,1.3,6.13,-3.67,1.49,-4.67
,,0,2025-11-18T17:50:31.481Z,9.84,9.18,-3.27,1.36,6.43,-4.15,1.82,-4.56
,,0,2025-11-18T17:50:31.491Z,9.84,9.19,-3.27,1.28,6.25,-4.12,1.8,-4.34
,,0,2025-11-18T17:50:31.501Z,9.87,9.21,-3.26,1.38,6.17,-3.75,2.04,-4.46
,,0,2025-11-18T17:50:31.511Z,9.81,9.18,-3.22,1.26,6.39,-4.16,2.08,-4.39
,,0,2025-11-18T17:50:31.521Z,9.82,9.16,-3.26,1.34,6.56,-4.14,1.86,-4.73
,,0,2025-11-18T17:50:31.531Z,9.83,9.17,-3.28,1.31,6.81,-4.48,1.83,-4.79
,,0,2025-11-18T17:50:31.541Z,9.82,9.16,-3.27,1.32,6.85,-4.3,2.1,-4.9
,,0,2025-11-18T17:50:31.551Z,9.79,9.15,-3.24,1.27,7.05,-4.39,2.26,-5.04
,,0,2025-11-18T17:50:31.561Z,9.76,9.11,-3.24,1.35,7.47,-4.68,2.41,-5.3
,,0,2025-11-18T17:50:31.571Z,9.75,9.11,-3.21,1.35,7.6,-5.06,1.94,-5.33
,,0,2025-11-18T17:50:31.581Z,9.77,9.13,-3.24,1.25,7.53,-5.05,1.56,-5.37
,,0,2025-11-18T17:50:31.591Z,9.77,9.11,-3.29,1.31,7.61,-5.21,0.95,-5.47
,,0,2025-11-18T17:50:31.601Z,9.77,9.11,-3.3,1.3,7.84,-4.75,0.86,-6.18
,,0,2025-11-18T17:50:31.611Z,9.86,9.18,-3.33,1.33,7.72,-4.71,0.53,-6.1
,,0,2025-11-18T17:50:31.621Z,9.89,9.2,-3.37,1.35,7.82,-4.28,0.25,-6.53
,,0,2025-11-18T17:50:31.631Z,9.87,9.19,-3.33,1.36,7.77,-3.92,0.44,-6.69
,,0,2025-11-18T17:50:31.641Z,9.86,9.18,-3.31,1.42,7.94,-3.57,0.62,-7.06
,,0,2025-11-18T17:50:31.651Z,9.83,9.16,-3.31,1.37,8.18,-3.81,0.65,-7.21
,,0,2025-11-18T17:50:31.661Z,9.89,9.17,-3.42,1.41,8.05,-3.3,-0.16,-7.34
,,0,2025-11-18T17:50:31.671Z,9.87,9.17,-3.38,1.39,7.99,-2.76,-0.45,-7.48
,,0,2025-11-18T17:50:31.681Z,9.96,9.27,-3.35,1.43,7.71,-2.51,-0.4,-7.27
,,0,2025-11-18T17:50:31.691Z,9.95,9.25,-3.35,1.45,7.61,-2.48,-0.04,-7.19
,,0,2025-11-18T17:50:31.701Z,9.96,9.26,-3.37,1.46,7.31,-2.12,-0.02,-7
,,0,2025-11-18T17:50:31.711Z,9.98,9.28,-3.39,1.41,7.04,-2.41,-0.03,-6.62
,,0,2025-11-18T17:50:31.721Z,9.99,9.29,-3.36,1.48,6.61,-2.11,0.43,-6.24
,,0,2025-11-18T17:50:31.731Z,9.99,9.29,-3.37,1.45,6.39,-2.79,0.78,-5.7
,,0,2025-11-18T17:50:31.741Z,9.96,9.27,-3.36,1.45,5.83,-2.81,1,-5.02
,,0,2025-11-18T17:50:31.751Z,9.99,9.3,-3.37,1.45,5.58,-3.05,1.82,-4.31
,,0,2025-11-18T17:50:31.761Z,10,9.31,-3.35,1.43,5.48,-3.15,2.37,-3.8
,,0,2025-11-18T17:50:31.771Z,9.97,9.29,-3.37,1.35,5.26,-2.92,2.72,-3.43
,,0,2025-11-18T17:50:31.781Z,9.92,9.23,-3.34,1.4,5.14,-2.98,2.73,-3.18
,,0,2025-11-18T17:50:31.791Z,9.89,9.21,-3.29,1.47,4.99,-2.85,2.61,-3.15
,,0,2025-11-18T17:50:31.801Z,9.87,9.2,-3.34,1.29,4.88,-3.01,2.39,-3.01
,,0,2025-11-18T17:50:31.811Z,9.91,9.23,-3.37,1.33,4.76,-2.86,2.08,-3.18
,,0,2025-11-18T17:50:31.821Z,9.91,9.23,-3.32,1.43,4.57,-2.5,1.77,-3.38
,,0,2025-11-18T17:50:31.831Z,9.9,9.24,-3.28,1.34,4.38,-1.58,1.69,-3.73
,,0,2025-11-18T17:50:31.841Z,9.92,9.24,-3.33,1.39,4.44,-1.02,1.36,-4.1
,,0,2025-11-18T17:50:31.851Z,9.87,9.22,-3.28,1.34,4.76,-0.56,1.27,-4.55
,,0,2025-11-18T17:50:32.134Z,9.85,9.21,-3.23,1.37,5.7,-1.52,3.53,-4.21
,,0,2025-11-18T17:50:32.143Z,9.87,9.2,-3.29,1.4,5.56,-2.02,3.26,-4.02
,,0,2025-11-18T17:50:32.153Z,9.93,9.27,-3.28,1.34,5.4,-2.08,3.08,-3.92
,,0,2025-11-18T17:50:32.163Z,9.99,9.33,-3.28,1.42,5.9,-2.26,3.63,-4.06
,,0,2025-11-18T17:50:32.173Z,10,9.34,-3.27,1.45,6.3,-2.52,3.96,-4.21
,,0,2025-11-18T17:50:32.183Z,9.98,9.33,-3.24,1.48,6.62,-2.43,4.45,-4.26
,,0,2025-11-18T17:50:32.193Z,9.91,9.26,-3.23,1.42,6.42,-1.81,4.49,-4.21
,,0,2025-11-18T17:50:32.203Z,9.85,9.19,-3.26,1.38,6.79,-1.76,4.84,-4.42
,,0,2025-11-18T17:50:32.213Z,9.82,9.17,-3.22,1.43,6.67,-1.25,4.76,-4.51
,,0,2025-11-18T17:50:32.223Z,9.81,9.14,-3.25,1.43,6.62,-1.39,4.71,-4.44
,,0,2025-11-18T17:50:32.233Z,9.78,9.14,-3.2,1.39,6.26,-1.18,4.62,-4.06
,,0,2025-11-18T17:50:32.243Z,9.73,9.09,-3.16,1.44,6.14,-1.44,4.22,-4.22
,,0,2025-11-18T17:50:32.253Z,9.83,9.2,-3.16,1.42,6.09,-1.48,4.03,-4.32
,,0,2025-11-18T17:50:32.263Z,9.76,9.13,-3.14,1.44,6.35,-1.97,4.25,-4.28
,,0,2025-11-18T17:50:32.273Z,9.78,9.13,-3.19,1.47,6.5,-1.83,4.24,-4.57
,,0,2025-11-18T17:50:32.283Z,9.78,9.14,-3.18,1.38,6.54,-2.02,4.21,-4.58
,,0,2025-11-18T17:50:32.293Z,9.8,9.16,-3.21,1.29,6.52,-2.05,3.77,-4.9
,,0,2025-11-18T17:50:32.303Z,9.79,9.14,-3.24,1.28,6.97,-2.4,4.12,-5.08
,,0,2025-11-18T17:50:32.313Z,9.74,9.1,-3.25,1.28,7.25,-2.34,3.87,-5.67
,,0,2025-11-18T17:50:32.323Z,9.77,9.14,-3.25,1.2,6.95,-2.31,3.66,-5.44
,,0,2025-11-18T17:50:32.333Z,9.75,9.12,-3.23,1.24,7.12,-2.75,3.21,-5.73
,,0,2025-11-18T17:50:32.343Z,9.82,9.16,-3.3,1.29,6.45,-2.66,2.54,-5.3
,,0,2025-11-18T17:50:32.353Z,9.8,9.15,-3.29,1.24,6.36,-2.54,2.44,-5.29
,,0,2025-11-18T17:50:32.363Z,9.77,9.11,-3.33,1.24,6.06,-2.05,2.04,-5.32
,,0,2025-11-18T17:50:32.373Z,9.77,9.11,-3.31,1.29,5.85,-1.62,1.53,-5.4
,,0,2025-11-18T17:50:32.383Z,9.79,9.12,-3.31,1.26,5.72,-1.25,0.85,-5.52
,,0,2025-11-18T17:50:32.393Z,9.81,9.13,-3.35,1.27,5.3,-0.69,0.75,-5.21
,,0,2025-11-18T17:50:32.403Z,9.77,9.1,-3.3,1.31,5.41,-0.42,0.43,-5.38
,,0,2025-11-18T17:50:32.413Z,9.74,9.09,-3.26,1.29,5.13,-0.15,0.13,-5.12
,,0,2025-11-18T17:50:32.423Z,9.69,9.03,-3.23,1.34,5.22,-0.05,0.18,-5.21
,,0,2025-11-18T17:50:32.433Z,9.71,9.07,-3.24,1.3,5.04,-0.3,-0.54,-5
,,0,2025-11-18T17:50:32.443Z,9.77,9.11,-3.27,1.36,5.08,-0.45,-0.87,-4.98
,,0,2025-11-18T17:50:32.453Z,9.78,9.13,-3.22,1.38,5.34,-0.39,-0.98,-5.23
,,0,2025-11-18T17:50:32.463Z,9.77,9.12,-3.25,1.35,5.35,-0.45,-1.43,-5.14
,,0,2025-11-18T17:50:32.473Z,9.74,9.08,-3.25,1.42,5.7,-0.54,-1.3,-5.53
,,0,2025-11-18T17:50:32.483Z,9.77,9.11,-3.22,1.45,5.78,-0.66,-1.49,-5.55
,,0,2025-11-18T17:50:32.493Z,9.79,9.12,-3.24,1.44,5.91,-0.85,-1.69,-5.6
,,0,2025-11-18T17:50:32.503Z,9.84,9.18,-3.23,1.47,6.01,-1.31,-1.76,-5.6
,,0,2025-11-18T17:50:32.513Z,9.9,9.25,-3.25,1.43,6.03,-1.85,-1.43,-5.56
,,0,2025-11-18T17:50:32.523Z,9.9,9.24,-3.26,1.39,5.85,-2.14,-0.82,-5.38
,,0,2025-11-18T17:50:32.533Z,9.89,9.23,-3.25,1.45,5.95,-2.89,-0.59,-5.17
,,0,2025-11-18T17:50:32.543Z,9.89,9.22,-3.27,1.44,5.93,-3.21,-0.02,-4.98
,,0,2025-11-18T17:50:32.553Z,9.86,9.22,-3.22,1.35,5.98,-3.88,0.34,-4.54
,,0,2025-11-18T17:50:32.563Z,9.87,9.21,-3.26,1.39,5.86,-4,0.79,-4.21
,,0,2025-11-18T17:50:32.573Z,9.83,9.17,-3.27,1.37,6,-4.49,1.08,-3.82
,,0,2025-11-18T17:50:32.583Z,9.84,9.18,-3.25,1.37,6.4,-4.95,1.44,-3.8
,,0,2025-11-18T17:50:32.593Z,9.8,9.13,-3.29,1.36,6.27,-5.19,1.31,-3.26
,,0,2025-11-18T17:50:32.603Z,9.82,9.15,-3.27,1.41,6.57,-5.65,1.37,-3.06
,,0,2025-11-18T17:50:32.613Z,9.81,9.15,-3.29,1.34,6.4,-5.56,1.12,-2.97
,,0,2025-11-18T17:50:32.623Z,9.88,9.21,-3.3,1.36,6.28,-5.42,0.72,-3.09
,,0,2025-11-18T17:50:32.633Z,9.89,9.22,-3.3,1.33,6.1,-5.24,0.52,-3.07
,,0,2025-11-18T17:50:32.643Z,9.85,9.2,-3.26,1.32,6.12,-5.12,0.17,-3.35
,,0,2025-11-18T17:50:32.653Z,9.88,9.22,-3.31,1.31,5.83,-4.83,-0.07,-3.26
,,0,2025-11-18T17:50:32.663Z,9.81,9.18,-3.21,1.31,5.87,-4.62,0.03,-3.62
,,0,2025-11-18T17:50:32.673Z,9.88,9.24,-3.25,1.25,5.7,-4.43,-0.26,-3.58
,,0,2025-11-18T17:50:32.683Z,9.88,9.24,-3.3,1.24,5.46,-4.2,-0.44,-3.46
,,0,2025-11-18T17:50:32.693Z,9.92,9.29,-3.24,1.3,5.45,-3.93,-0.76,-3.69
,,0,2025-11-18T17:50:32.703Z,9.9,9.25,-3.25,1.33,5.67,-4.02,-0.78,-3.92
,,0,2025-11-18T17:50:32.713Z,9.93,9.28,-3.25,1.36,5.53,-4.34,-0.4,-3.4
,,0,2025-11-18T17:50:32.723Z,9.88,9.21,-3.27,1.45,5.37,-3.83,-0.16,-3.76
,,0,2025-11-18T17:50:32.733Z,9.84,9.18,-3.26,1.4,4.95,-3.42,-0.42,-3.55
,,0,2025-11-18T17:50:32.743Z,9.83,9.15,-3.28,1.43,5.04,-2.89,-0.2,-4.12
,,0,2025-11-18T17:50:32.753Z,9.85,9.18,-3.25,1.51,4.88,-2.49,-0.68,-4.15
,,0,2025-11-18T17:50:32.763Z,9.92,9.19,-3.38,1.55,4.93,-1.91,-0.56,-4.51
,,0,2025-11-18T17:50:32.773Z,10.18,9.28,-3.81,1.73,5.2,0.05,-2.06,-4.77
,,0,2025-11-18T17:50:32.783Z,10.83,9.51,-4.8,1.99,6.14,1.52,-4.5,-3.89
,,0,2025-11-18T17:50:32.793Z,11.81,10.04,-5.81,2.22,10.99,8.07,-7.1,-2.3
,,0,2025-11-18T17:50:32.803Z,12.94,10.45,-7.28,2.29,16.7,15.21,-6.85,0.69
,,0,2025-11-18T17:50:32.813Z,13.95,10.56,-8.98,1.5,34.97,34.27,-6.95,-0.56
,,0,2025-11-18T17:50:32.823Z,14.49,10.74,-9.69,0.79,57.36,56.83,2.92,7.17
,,0,2025-11-18T17:50:32.833Z,13.97,10.29,-9.42,0.81,86.38,83.18,4.35,22.9
,,0,2025-11-18T17:50:32.843Z,14.53,10.1,-10.35,1.42,116.04,107.22,-1.47,44.34
,,0,2025-11-18T17:50:32.853Z,15.5,10.55,-11.21,1.87,139.9,122.18,-6.11,67.86
,,0,2025-11-18T17:50:32.863Z,16.01,10.86,-11.53,2.32,158.26,133.06,-4.67,85.56
,,0,2025-11-18T17:50:32.873Z,16.16,11.25,-11.29,2.69,167.87,135.11,4.04,99.56
,,0,2025-11-18T17:50:32.883Z,15.75,11.36,-10.48,3.02,178.1,134.92,16.73,115.05
,,0,2025-11-18T17:50:32.893Z,14.97,10.9,-9.75,3.19,187.16,129.82,30.06,131.42
,,0,2025-11-18T17:50:32.903Z,14.18,10.21,-9.26,3.36,195.08,125.03,38.23,144.79
,,0,2025-11-18T17:50:32.913Z,13.94,9.76,-9.13,3.99,201.46,121.09,43.42,155.04
,,0,2025-11-18T17:50:32.923Z,13.98,9.31,-9.42,4.48,205.55,120.29,44.48,160.63
,,0,2025-11-18T17:50:32.933Z,14.48,9.5,-9.76,4.91,210.03,123.07,45.3,164.06
,,0,2025-11-18T17:50:32.943Z,14.65,9.8,-9.76,4.85,215.71,126.54,49.04,167.66
,,0,2025-11-18T17:50:32.953Z,14.26,10.15,-8.82,4.77,220.4,126.89,57.17,170.9
,,0,2025-11-18T17:50:32.963Z,13.19,10.04,-7.31,4.45,221.66,120.22,68.43,173.2
,,0,2025-11-18T17:50:32.973Z,12.33,9.35,-6.84,4.21,222.34,114.27,75.77,175.04
,,0,2025-11-18T17:50:32.983Z,11.96,8.48,-7.46,3.95,223.23,113.24,76.28,176.6
,,0,2025-11-18T17:50:32.993Z,11.38,7.99,-7.41,3.26,222.99,114.19,72.73,177.18
,,0,2025-11-18T17:50:33.003Z,10.83,7.74,-6.88,3.17,222.06,118.03,69.19,174.91
,,0,2025-11-18T17:50:33.013Z,10.12,7.64,-5.9,3.06,217.04,121.17,64.41,168.16
,,0,2025-11-18T17:50:33.023Z,9.74,7.54,-5.33,3.09,210.73,121.98,62.02,160.25
,,0,2025-11-18T17:50:33.033Z,9.57,7.3,-5.42,3,206.48,126.15,60.04,152.05
,,0,2025-11-18T17:50:33.043Z,9.51,7.16,-5.57,2.88,201.43,130.89,56.52,142.29
,,0,2025-11-18T17:50:33.053Z,9.21,7.17,-5.15,2.62,195.99,133.39,55.27,132.53
,,0,2025-11-18T17:50:33.063Z,8.89,7.04,-4.76,2.61,189.88,134.32,55.16,122.35
,,0,2025-11-18T17:50:33.073Z,8.47,6.84,-4.41,2.31,183.56,132.19,56.1,114.33
,,0,2025-11-18T17:50:33.083Z,7.94,6.36,-4.28,2.09,180.07,134.75,51.51,107.78
,,0,2025-11-18T17:50:33.093Z,7.24,6.11,-3.49,1.68,171.63,132.54,45.12,99.26
,,0,2025-11-18T17:50:33.103Z,6.89,6.24,-2.54,1.45,161.35,128.04,40.6,89.39
,,0,2025-11-18T17:50:33.113Z,7.01,6.47,-2.07,1.73,150,119.71,38.4,81.82
,,0,2025-11-18T17:50:33.123Z,7.29,6.5,-2.17,2.47,140.64,112.76,36.71,75.61
,,0,2025-11-18T17:50:33.133Z,7.57,6.74,-1.82,2.94,124.53,100.05,31.96,66.89
,,0,2025-11-18T17:50:33.143Z,7.91,7.04,-1.24,3.38,109.6,87.89,32.18,57.03
,,0,2025-11-18T17:50:33.153Z,7.9,6.93,-1.47,3.5,98.32,76.74,34.04,51.18
,,0,2025-11-18T17:50:33.163Z,7.83,6.61,-1.91,3.74,87.37,66.03,33.93,46.06
,,0,2025-11-18T17:50:33.173Z,7.26,5.72,-3.22,3.11,84.1,70.29,29.34,35.64
,,0,2025-11-18T17:50:33.183Z,8.4,6.75,-2.76,4.18,57.45,46.49,20.34,26.93
,,0,2025-11-18T17:50:33.193Z,9.51,8.01,0.95,5.04,47.75,32.13,27.98,21.56
,,0,2025-11-18T17:50:33.203Z,8.97,7.46,-0.23,4.98,37.76,7.69,33.29,16.08
,,0,2025-11-18T17:50:33.213Z,9.01,7.18,-0.39,5.43,45.43,-22.13,37.88,11.81
,,0,2025-11-18T17:50:33.223Z,8.99,6.86,-1.44,5.63,58.6,-44.44,37.88,4.92
,,0,2025-11-18T17:50:33.233Z,9.32,6.86,-2.19,5.91,70.68,-58.97,38.96,0.75
,,0,2025-11-18T17:50:33.243Z,9.61,7.05,-1.87,6.26,84.13,-75.04,38.01,-1.56
,,0,2025-11-18T17:50:33.253Z,9.95,6.17,-5.63,5.41,84.99,-75.23,38.92,7.07
,,0,2025-11-18T17:50:33.263Z,11.12,5.39,-7.88,5.71,79.37,-67.95,39.81,9.85
,,0,2025-11-18T17:50:33.273Z,10.93,4.1,-8.61,5.34,61.25,-49.82,35.53,-2.59
,,0,2025-11-18T17:50:33.283Z,10.53,3.68,-8.41,5.15,48.63,-36.29,29.79,-12.64
,,0,2025-11-18T17:50:33.293Z,10.08,3.59,-7.37,5.87,41.81,-29.13,26.77,-13.52
,,0,2025-11-18T17:50:33.303Z,9.87,3.4,-6.87,6.22,38.41,-27.18,23.73,-13.16
,,0,2025-11-18T17:50:33.313Z,9.6,3.07,-6.59,6.26,35.08,-26.09,20.26,-11.8
,,0,2025-11-18T17:50:33.323Z,9.42,2.82,-6.62,6.08,34.81,-27.91,18.18,-10.12
,,0,2025-11-18T17:50:33.333Z,9.79,2.57,-7.02,6.32,33.52,-26.6,18.29,-9.05
,,0,2025-11-18T17:50:33.343Z,10.05,2.32,-7.2,6.62,29.07,-21.47,16.99,-9.76
,,0,2025-11-18T17:50:33.353Z,9.5,2.34,-6.69,6.32,25.64,-16.53,14.29,-13.41
,,0,2025-11-18T17:50:33.363Z,8.78,2.43,-5.93,5.99,26.43,-17,14.69,-13.93
,,0,2025-11-18T17:50:33.373Z,7.98,2.21,-5.27,5.57,31.08,-25.45,14.7,-10.09
,,0,2025-11-18T17:50:33.383Z,7.97,2.17,-5.28,5.55,34.88,-31.85,13.44,-4.69
,,0,2025-11-18T17:50:33.393Z,8.76,2.35,-6,5.93,36.09,-34.44,9.91,-4.26
,,0,2025-11-18T17:50:33.403Z,9.42,2.86,-6.39,6.31,39.31,-38.21,7.58,-5.24
,,0,2025-11-18T17:50:33.413Z,9.91,3.08,-6.89,6.42,39.2,-38.21,7.53,-4.47
,,0,2025-11-18T17:50:33.423Z,10.5,3.58,-7.12,6.84,38.65,-37.38,8.95,-4.02
,,0,2025-11-18T17:50:33.433Z,11.35,4.1,-7.68,7.29,33.69,-31.25,12.32,-2.51
,,0,2025-11-18T17:50:33.443Z,12.06,4.41,-8.42,7.42,25.04,-18.86,13.49,-9.45
,,0,2025-11-18T17:50:33.453Z,11.95,4.43,-8.47,7.18,26.59,-8.85,16.91,-18.51
,,0,2025-11-18T17:50:33.463Z,11.2,3.88,-7.78,7.05,28.34,-5.05,18.76,-20.63
,,0,2025-11-18T17:50:33.473Z,10.59,3.51,-7.07,7.07,27.25,-11.73,17.69,-17.09
,,0,2025-11-18T17:50:33.483Z,10.23,3.54,-6.7,6.87,31.88,-24.05,16.53,-12.85
,,0,2025-11-18T17:50:33.493Z,10.05,3.63,-6.74,6.52,39.4,-34.55,15.45,-10.95
,,0,2025-11-18T17:50:33.503Z,10.23,3.87,-6.94,6.45,43.96,-40.21,14.69,-10.01
,,0,2025-11-18T17:50:33.513Z,10.17,3.98,-6.92,6.29,46.25,-42.79,14.11,-10.4
,,0,2025-11-18T17:50:33.523Z,10.3,4.02,-7.02,6.38,46.87,-43.27,13.66,-11.73
,,0,2025-11-18T17:50:33.533Z,10.64,4.06,-7.35,6.53,44.58,-40.14,13.92,-13.51
,,0,2025-11-18T17:50:33.543Z,10.91,4.08,-7.79,6.46,37.98,-31.01,14.2,-16.72
,,0,2025-11-18T17:50:33.553Z,10.94,4.05,-7.93,6.37,31.76,-19.9,14.63,-19.96
,,0,2025-11-18T17:50:33.563Z,10.49,3.91,-7.65,6.02,29.39,-10.26,15.19,-22.97
,,0,2025-11-18T17:50:33.573Z,10.11,3.75,-7.28,5.94,28.81,-3.02,15.11,-24.34
,,0,2025-11-18T17:50:33.583Z,9.91,3.56,-7.07,5.96,28.72,1.66,14.53,-24.71
,,0,2025-11-18T17:50:33.593Z,9.72,3.45,-6.86,5.96,27.86,2.47,13.11,-24.46
,,0,2025-11-18T17:50:33.603Z,9.57,3.46,-6.71,5.88,26.52,-1.21,12.39,-23.42
,,0,2025-11-18T17:50:33.613Z,9.66,3.43,-6.64,6.12,24.98,-7.8,12.27,-20.31
,,0,2025-11-18T17:50:33.623Z,10.04,3.5,-6.74,6.57,26.2,-14.67,12.33,-17.87
,,0,2025-11-18T17:50:33.633Z,10.33,3.61,-6.98,6.71,28.54,-20.13,12.02,-16.28
,,0,2025-11-18T17:50:33.643Z,10.88,3.76,-7.44,6.99,28.75,-20.81,13.22,-14.79
,,0,2025-11-18T17:50:33.653Z,11.11,3.76,-7.65,7.13,28.93,-19.78,14.72,-15.14
,,0,2025-11-18T17:50:33.663Z,11.21,3.66,-7.74,7.24,26.71,-15.65,15.04,-15.56
,,0,2025-11-18T17:50:33.673Z,10.98,3.51,-7.62,7.08,24.08,-11.15,14.47,-15.69
,,0,2025-11-18T17:50:33.683Z,10.83,3.56,-7.53,6.92,21.67,-6.52,13.65,-15.52
,,0,2025-11-18T17:50:33.693Z,10.75,3.51,-7.43,6.93,19.58,-3.89,12.91,-14.2
,,0,2025-11-18T17:50:33.703Z,10.42,3.52,-7.18,6.68,17.11,-2.98,12.03,-11.8
,,0,2025-11-18T17:50:33.713Z,10.1,3.53,-6.86,6.52,16.06,-4.77,11.26,-10.4
,,0,2025-11-18T17:50:33.723Z,9.87,3.5,-6.7,6.34,16.35,-8.36,11.29,-8.36
,,0,2025-11-18T17:50:33.733Z,9.81,3.46,-6.66,6.32,16.64,-11.08,10.88,-5.96
,,0,2025-11-18T17:50:33.743Z,9.84,3.49,-6.6,6.4,16.83,-12.45,10.34,-4.62
,,0,2025-11-18T17:50:33.753Z,9.92,3.57,-6.53,6.56,16.73,-12.47,10.36,-4.14
,,0,2025-11-18T17:50:33.763Z,10,3.58,-6.45,6.74,15.66,-11.37,9.73,-4.6
,,0,2025-11-18T17:50:33.773Z,10.03,3.58,-6.49,6.77,14.19,-9.29,9.28,-5.37
,,0,2025-11-18T17:50:33.783Z,9.96,3.46,-6.57,6.64,12.61,-5.43,8.56,-7.51
,,0,2025-11-18T17:50:33.793Z,9.62,3.42,-6.23,6.48,12.79,-0.93,7.85,-10.05
,,0,2025-11-18T17:50:33.803Z,9.11,3.29,-5.78,6.23,15.44,2.73,7.89,-12.98
,,0,2025-11-18T17:50:33.813Z,8.39,3.17,-5.35,5.64,16.36,3.67,7.17,-14.24
,,0,2025-11-18T17:50:33.823Z,7.69,3,-4.76,5.24,14.95,1.63,5.42,-13.84
,,0,2025-11-18T17:50:33.833Z,6.98,2.8,-4.03,4.96,13.66,-4.76,0.01,-12.81
,,0,2025-11-18T17:50:33.843Z,6.34,3.07,-3.33,4.44,18.6,-15.78,-5.27,-8.32
,,0,2025-11-18T17:50:33.853Z,6.16,3.68,-2.34,4.34,39.86,-39.79,-2.11,1.02
,,0,2025-11-18T17:50:33.863Z,5.64,3.23,-2.23,4.06,57.54,-57.07,2.32,6.97
,,0,2025-11-18T17:50:33.873Z,6.13,2.65,-3.66,4.13,65.32,-64.91,1.69,7.1
,,0,2025-11-18T17:50:33.883Z,7.66,2.26,-5.7,4.59,52.34,-52.14,-4.4,1.48
,,0,2025-11-18T17:50:33.893Z,8.3,2.3,-6.52,4.6,35.45,-29.69,-14.37,-12.98
,,0,2025-11-18T17:50:33.903Z,7.77,2.37,-6.01,4.32,36.86,-2.86,-25.21,-26.74
,,0,2025-11-18T17:50:33.913Z,8.07,2.57,-5.95,4.81,63.47,33.38,-33.05,-42.69
,,0,2025-11-18T17:50:33.923Z,8,2.02,-6.87,3.57,114.95,81.76,-45.61,-66.69
,,0,2025-11-18T17:50:33.933Z,6.78,1.61,-5.99,2.74,154.48,114.08,-60.35,-84.89
,,0,2025-11-18T17:50:33.943Z,4.87,0.91,-4.29,2.13,187.98,144.7,-74.95,-93.7
,,0,2025-11-18T17:50:33.953Z,4.07,0.6,-3.47,2.04,210.19,156.82,-97.35,-100.55
,,0,2025-11-18T17:50:33.963Z,3.58,0.72,-2.75,2.18,224.42,159.11,-122.66,-100.02
,,0,2025-11-18T17:50:33.973Z,4.64,1.34,-3.19,3.09,233.98,155.68,-146.36,-95.35
,,0,2025-11-18T17:50:33.983Z,7.72,2.19,-5.58,4.86,248.62,157.65,-169.54,-90.64
,,0,2025-11-18T17:50:33.993Z,11.03,2.79,-8.68,6.21,277.22,177.08,-194.06,-88.53
,,0,2025-11-18T17:50:34.003Z,13.51,4.12,-9.91,8.21,305.17,197.08,-217.53,-83.51
,,0,2025-11-18T17:50:34.013Z,14.44,5.57,-9.43,9.41,324.46,213.54,-233.78,-70.89
,,0,2025-11-18T17:50:34.023Z,15.62,7.28,-8.99,10.5,320.83,215.24,-230.8,-57.75
,,0,2025-11-18T17:50:34.033Z,16.19,8.03,-8.61,11.11,298.01,206.46,-210.4,-43.73
,,0,2025-11-18T17:50:34.043Z,14.77,6.85,-8.06,10.3,278.9,203.57,-186.98,-37.15
,,0,2025-11-18T17:50:34.053Z,13.69,5.41,-9.44,8.3,284.15,220.5,-174.41,-41.24
,,0,2025-11-18T17:50:34.063Z,13.21,3.28,-12.63,2.07,312.92,250.13,-182.91,-43.56
,,0,2025-11-18T17:50:34.073Z,13.06,2.9,-12.73,-0.03,320.9,250.13,-199.13,-27.56
,,0,2025-11-18T17:50:34.083Z,10.03,5.6,-8.27,0.93,329.83,250.13,-214.89,6.6
,,0,2025-11-18T17:50:34.093Z,8.35,8.21,-0.98,1.19,330.09,250.13,-212.85,32.98
,,0,2025-11-18T17:50:34.103Z,10.77,9.85,4.32,0.65,321.5,250.13,-199.27,33.05
,,0,2025-11-18T17:50:34.113Z,13.83,12.25,4.74,4.32,284.56,215.87,-182.27,33.98
,,0,2025-11-18T17:50:34.123Z,12.34,11.91,3.09,1.01,269.61,195.71,-181.52,37.93
,,0,2025-11-18T17:50:34.133Z,16.49,14.92,0.06,7.03,239.21,161.83,-162.74,67.44
,,0,2025-11-18T17:50:34.289Z,11.88,11.73,-1.26,1.37,34.11,-20.15,-11.99,-24.78
,,0,2025-11-18T17:50:34.298Z,11.9,11.68,1.44,1.75,50.1,-34.93,-10.02,-34.5
,,0,2025-11-18T17:50:34.308Z,12.8,12.68,-0.35,1.71,58.65,-44.51,8.89,-37.14
,,0,2025-11-18T17:50:34.318Z,13.28,12.36,-4.49,1.84,50.66,-29.24,25.27,-32.76
,,0,2025-11-18T17:50:34.328Z,12.22,11.02,-4.81,2.14,41.04,-2.58,27.95,-29.93
,,0,2025-11-18T17:50:34.338Z,10.79,9.98,-3.52,2.11,41.68,11.03,20.18,-34.76
,,0,2025-11-18T17:50:34.348Z,11.14,10.41,-3.79,1.15,53.65,19.26,13.21,-48.3
,,0,2025-11-18T17:50:34.358Z,11.48,10.88,-3.54,0.92,65.48,30.05,13.96,-56.47
,,0,2025-11-18T17:50:34.368Z,11.31,10.97,-2.39,1.39,70.91,34.23,13.74,-60.56
,,0,2025-11-18T17:50:34.378Z,10.48,10.37,-0.63,1.4,71.16,25.76,12.02,-65.23
,,0,2025-11-18T17:50:34.388Z,10.79,10.6,0.78,1.9,70.14,13.21,13.53,-67.54
,,0,2025-11-18T17:50:34.398Z,11.41,10.94,1.89,2.64,60.09,-4.82,11.53,-58.77
,,0,2025-11-18T17:50:34.408Z,12.29,11.82,2.04,2.69,67.84,-34.65,18.98,-55.15
,,0,2025-11-18T17:50:34.418Z,11.86,11.53,0.21,2.79,85.97,-58.45,30,-55.45
,,0,2025-11-18T17:50:34.428Z,10.61,10.16,-1.01,2.87,96.2,-70.84,31.53,-56.93
,,0,2025-11-18T17:50:34.438Z,9.97,9.31,-2.63,2.43,96.36,-73.05,25.9,-57.24
,,0,2025-11-18T17:50:34.448Z,10.57,9.58,-4.05,1.93,92.02,-67.58,17.44,-59.97
,,0,2025-11-18T17:50:34.458Z,10.47,9.57,-4.02,1.36,84.17,-54.18,7.52,-63.98
,,0,2025-11-18T17:50:34.468Z,9.86,9.56,-2.26,0.91,83.38,-48.54,-3.86,-67.68
,,0,2025-11-18T17:50:34.478Z,9.74,9.68,-0.54,0.97,92.58,-56.6,-10.49,-72.5
,,0,2025-11-18T17:50:34.488Z,10.2,10.08,0.12,1.55,107.44,-70.56,-13.35,-79.92
,,0,2025-11-18T17:50:34.498Z,10.15,10.03,-0.5,1.43,117.59,-82.18,-14.76,-82.8
,,0,2025-11-18T17:50:34.508Z,9.82,9.63,-1.49,1.24,121.68,-83.55,-17.2,-86.77
,,0,2025-11-18T17:50:34.518Z,9.14,8.96,-1.44,1.08,125.4,-82.99,-24.63,-90.73
,,0,2025-11-18T17:50:34.528Z,8.91,8.86,-0.09,0.93,133.01,-88.28,-32.77,-93.93
,,0,2025-11-18T17:50:34.538Z,9.33,9.3,0.58,0.41,144.24,-101.36,-38.5,-95.13
,,0,2025-11-18T17:50:34.548Z,9.8,9.72,1.27,0.11,160.19,-120.54,-43.48,-96.12
,,0,2025-11-18T17:50:34.558Z,10.04,9.92,1.52,-0.06,180.57,-145.97,-47.06,-95.31
,,0,2025-11-18T17:50:34.568Z,10.41,10.41,0.22,-0.04,199.19,-167.85,-46.38,-96.72
,,0,2025-11-18T17:50:34.578Z,10.64,10.49,-1.75,0.04,207.04,-175.88,-47.64,-98.29
,,0,2025-11-18T17:50:34.588Z,10.6,10.27,-2.65,0.28,209.13,-177.76,-50.04,-98.15
,,0,2025-11-18T17:50:34.598Z,10.36,9.97,-2.81,0.13,207.19,-175.35,-54.66,-95.88
,,0,2025-11-18T17:50:34.608Z,10.07,9.73,-2.59,0.24,206.96,-176.02,-58.34,-91.92
,,0,2025-11-18T17:50:34.618Z,9.92,9.68,-2.16,0.18,211.42,-182.5,-61.26,-87.4
,,0,2025-11-18T17:50:34.628Z,9.8,9.68,-1.52,-0.37,222.41,-195.64,-64.35,-83.95
,,0,2025-11-18T17:50:34.638Z,9.57,9.45,-0.89,-1.24,238.66,-214.71,-67.4,-79.48
,,0,2025-11-18T17:50:34.648Z,9.14,9.03,-0.04,-1.42,259.56,-238.78,-67.02,-76.6
,,0,2025-11-18T17:50:34.658Z,9.15,8.93,0.11,-2.01,271.47,-250.14,-71.95,-77.12
,,0,2025-11-18T17:50:34.668Z,9.84,9.51,-1.07,-2.28,271.02,-250.14,-69.79,-77.55
,,0,2025-11-18T17:50:34.678Z,10.21,9.56,-1.75,-3.14,271.35,-250.14,-69.65,-78.79
,,0,2025-11-18T17:50:34.688Z,10.01,9.27,-1.36,-3.54,270.78,-250.14,-68.18,-78.14
,,0,2025-11-18T17:50:34.698Z,9.83,8.91,-1.22,-3.96,269.4,-250.14,-67.75,-73.59
,,0,2025-11-18T17:50:34.708Z,10.37,9.17,-1.46,-4.61,268.49,-250.14,-68.23,-69.72
,,0,2025-11-18T17:50:34.718Z,10.76,9.61,-0.76,-4.79,266.88,-250.14,-67.66,-63.88
,,0,2025-11-18T17:50:34.728Z,11.08,9.88,-0.24,-5.02,264.62,-250.14,-64.49,-57.41
,,0,2025-11-18T17:50:34.738Z,11.73,10.37,-0.06,-5.5,260.4,-250.14,-49.53,-52.79
,,0,2025-11-18T17:50:34.748Z,11.84,10.49,0.04,-5.5,255.36,-250.14,-33.56,-38.94
,,0,2025-11-18T17:50:34.758Z,12.01,10.21,-0.45,-6.3,252.3,-250.14,-28.2,-17.09
,,0,2025-11-18T17:50:34.768Z,13.27,11.4,-2.61,-6.27,250.39,-250.14,-11.15,1.94
,,0,2025-11-18T17:50:34.778Z,15.88,12.87,-7.74,-5.18,250.89,-250.14,16.62,9.94
,,0,2025-11-18T17:50:34.788Z,17.12,10.99,-11.64,-6.09,254.61,-250.14,33.96,33.26
,,0,2025-11-18T17:50:34.798Z,15.01,9.85,-9.58,-6.04,253.9,-250.14,25.6,35.2
,,0,2025-11-18T17:50:34.808Z,14.53,10.48,-8.15,-5.89,252.49,-250.14,26.58,21.87
,,0,2025-11-18T17:50:34.818Z,15.62,11.53,-8.26,-6.55,253.62,-250.14,36.24,21.03
,,0,2025-11-18T17:50:34.828Z,17.15,12.24,-9.77,-6.99,256.41,-250.14,51.98,21.78
,,0,2025-11-18T17:50:34.838Z,17.83,12.32,-10.97,-6.75,260.34,-250.14,69.99,17.58
,,0,2025-11-18T17:50:34.848Z,16.88,10.76,-11.75,-5.57,264.69,-250.14,84.33,19.53
,,0,2025-11-18T17:50:34.858Z,14.35,7.03,-11.66,-4.54,270.49,-250.14,78.49,66.62
,,0,2025-11-18T17:50:34.868Z,15.29,7.26,-13.06,-3.28,275.7,-250.14,61.18,98.5
,,0,2025-11-18T17:50:34.878Z,17.04,8.3,-14.48,-3.39,279.77,-250.14,51.79,114.11
,,0,2025-11-18T17:50:34.888Z,15.88,7.95,-13.32,-3.4,293.93,-250.14,50.65,145.81
,,0,2025-11-18T17:50:34.898Z,13.67,7.55,-11.1,-2.58,309.71,-250.14,42.48,177.61
,,0,2025-11-18T17:50:34.908Z,12.93,7.51,-10.16,-2.77,319.98,-250.14,39.8,195.53
,,0,2025-11-18T17:50:34.918Z,13.85,7.61,-11.19,-2.95,328.35,-250.14,40.08,208.9
,,0,2025-11-18T17:50:34.928Z,14.22,7.89,-11.41,-3.11,336.23,-250.14,49.82,219.09
,,0,2025-11-18T17:50:34.938Z,13.08,8.27,-9.7,-2.93,336.89,-250.14,60.2,217.5
,,0,2025-11-18T17:50:34.948Z,11.94,8.14,-8.24,-2.89,342.63,-250.14,73.99,222.15
,,0,2025-11-18T17:50:34.958Z,10.77,7.83,-6.92,-2.6,349.62,-250.14,82.84,229.79
,,0,2025-11-18T17:50:34.968Z,10.43,7.43,-6.78,-2.76,359.51,-250.14,92.89,240.93
,,0,2025-11-18T17:50:34.978Z,10.02,6.47,-7.07,-2.92,366.54,-250.14,96.02,250.13
,,0,2025-11-18T17:50:34.988Z,9.61,5.78,-6.91,-3.35,365.08,-250.14,90.29,250.13
,,0,2025-11-18T17:50:34.998Z,9.74,5.42,-6.6,-4.68,363.31,-250.14,82.81,250.13
,,0,2025-11-18T17:50:35.008Z,10.79,5.07,-7.22,-6.22,361.66,-250.14,75.27,250.13
,,0,2025-11-18T17:50:35.018Z,12.42,4.73,-8.84,-7.34,360.15,-250.14,67.64,250.13
,,0,2025-11-18T17:50:35.028Z,13.76,4.59,-10.69,-7.36,358.03,-250.14,55.25,250.13
,,0,2025-11-18T17:50:35.038Z,15.03,4.54,-12.19,-7.52,356.71,-250.14,45.94,250.13
,,0,2025-11-18T17:50:35.048Z,14.39,4.34,-11.4,-7.63,355.04,-250.14,30.36,250.13
,,0,2025-11-18T17:50:35.058Z,16.39,4.76,-13.6,-7.8,354.49,-250.14,22.95,250.13
,,0,2025-11-18T17:50:35.068Z,18.96,4.67,-16.8,-7.45,346.81,-239.85,13.54,250.13
,,0,2025-11-18T17:50:35.078Z,19,5.39,-17.1,-6.29,291.93,-150.32,-7.8,250.13
,,0,2025-11-18T17:50:35.088Z,19.91,5.28,-18.01,-6.62,253.41,-53.26,-31.89,245.69
,,0,2025-11-18T17:50:35.098Z,21.98,6.6,-19.62,-7.39,227.33,56.19,-34.46,217.56
,,0,2025-11-18T17:50:35.108Z,22.75,7.08,-19.62,-9.07,249.78,182.37,-33.47,167.37
,,0,2025-11-18T17:50:35.118Z,23.94,8,-19.62,-11.14,274.13,250.13,-25.95,109.13
,,0,2025-11-18T17:50:35.128Z,22.3,9.93,-15.82,-12.19,253.91,250.13,13.43,41.53
,,0,2025-11-18T17:50:35.138Z,18.09,11.23,-7.14,-12.26,264.4,250.13,85.05,10.37
,,0,2025-11-18T17:50:35.148Z,15.38,8.41,0.75,-12.86,299.27,250.13,162.79,22.27
,,0,2025-11-18T17:50:35.158Z,9.89,3.87,2.97,-8.6,301.3,250.13,164.82,32.38
,,0,2025-11-18T17:50:35.168Z,5.83,1.49,4.08,-3.89,284.47,250.13,135.47,-1.89
,,0,2025-11-18T17:50:35.178Z,5.13,0.26,4.96,-1.26,273.94,250.13,111.69,-1.45
,,0,2025-11-18T17:50:35.188Z,6,0.52,5.87,1.1,270.72,250.13,103.53,2.27
,,0,2025-11-18T17:50:35.198Z,6.8,2.81,5.83,2.11,268.9,250.13,97.43,-15.89
,,0,2025-11-18T17:50:35.208Z,7.19,5.33,4.45,1.87,229.32,201.98,105.79,-24.46
,,0,2025-11-18T17:50:35.218Z,7.24,5.14,4.93,1.3,159.57,101.5,121.74,-18.44
,,0,2025-11-18T17:50:35.228Z,6.01,4.04,3.54,2.69,133.38,-14.1,130.69,-22.57
,,0,2025-11-18T17:50:35.238Z,4.27,3.43,-0.54,2.49,160.27,-103.43,121.72,-13.23
,,0,2025-11-18T17:50:35.248Z,5.4,1.93,-5.02,0.52,218.17,-183.2,118.45,2.47
,,0,2025-11-18T17:50:35.258Z,8.65,3.36,-7.93,0.69,237.82,-215.77,98.37,17.98
,,0,2025-11-18T17:50:35.268Z,13.15,5.87,-11.75,-0.65,244.76,-220.24,105.35,-17.46
,,0,2025-11-18T17:50:35.278Z,13.11,7.06,-11,-1.02,236.98,-197.93,118.88,-53.39
,,0,2025-11-18T17:50:35.288Z,9.66,5.37,-7.75,-2.09,213.43,-161.69,124.62,-62.26
,,0,2025-11-18T17:50:35.298Z,7.81,4.45,-6.31,-1.18,188.06,-125.83,120.38,-70.99
,,0,2025-11-18T17:50:35.308Z,7.48,3.41,-6.46,-1.58,163.32,-95.15,104.78,-81.5
,,0,2025-11-18T17:50:35.318Z,9.2,3.75,-8.17,-1.99,143.18,-65.52,90.33,-89.72
,,0,2025-11-18T17:50:35.328Z,10.58,4.38,-9.3,-2.51,129.92,-36.42,78.65,-96.78
,,0,2025-11-18T17:50:35.338Z,10.97,4.8,-9.57,-2.39,136.88,4.72,73.95,-115.08
,,0,2025-11-18T17:50:35.348Z,11.01,4.76,-9.73,-1.96,168.05,49.14,75.42,-141.91
,,0,2025-11-18T17:50:35.358Z,9.67,4.05,-8.63,-1.63,191.9,93.42,71.08,-151.81
,,0,2025-11-18T17:50:35.368Z,7.26,3.42,-6.24,-1.47,205.37,122.77,60.18,-153.24
,,0,2025-11-18T17:50:35.378Z,5.35,3.2,-4.19,-0.91,208.19,133.98,51.4,-150.82
,,0,2025-11-18T17:50:35.388Z,4.17,3.42,-2.27,-0.75,210.2,131.44,40.67,-158.92
,,0,2025-11-18T17:50:35.398Z,4.24,3.51,-2.3,-0.6,204.11,122.92,30.4,-160.09
,,0,2025-11-18T17:50:35.408Z,4.99,4.11,-2.75,-0.69,197.27,113.8,16.83,-160.26
,,0,2025-11-18T17:50:35.418Z,5.98,4.59,-3.78,-0.62,197.06,98.11,11.95,-170.48
,,0,2025-11-18T17:50:35.428Z,6.14,5.12,-3.37,-0.22,189.72,85.81,3.01,-169.18
,,0,2025-11-18T17:50:35.438Z,6.84,6.24,-2.81,0.01,185.5,75.53,-10.25,-169.11
,,0,2025-11-18T17:50:35.448Z,8.21,7.75,-2.71,-0.16,183.92,57.23,-12.17,-174.37
,,0,2025-11-18T17:50:35.458Z,8.64,8.31,-2.39,0.02,161.85,40,-23.75,-155.02
,,0,2025-11-18T17:50:35.468Z,9.7,9.48,-2.05,0.27,149.52,14,-34.96,-144.7
,,0,2025-11-18T17:50:35.478Z,11.37,11.15,-2.19,0.35,158.4,-21.29,-38.87,-152.08
,,0,2025-11-18T17:50:35.488Z,12.5,12.27,-2.38,0.02,170.29,-54.15,-37.51,-157.03
,,0,2025-11-18T17:50:35.498Z,13.1,12.76,-2.95,-0.46,173.8,-87.66,-26.21,-147.76
,,0,2025-11-18T17:50:35.508Z,13.13,12.69,-3.28,-0.76,181.57,-118.7,-12.87,-136.79
,,0,2025-11-18T17:50:35.518Z,12.78,11.51,-5.54,-0.46,174.63,-124.14,-11.03,-122.32
,,0,2025-11-18T17:50:35.528Z,13.9,10.62,-8.96,-0.4,171.99,-112.87,-14.1,-129.01
,,0,2025-11-18T17:50:35.538Z,15.07,10.94,-10.37,-0.24,167.1,-87.65,-12.7,-141.69
,,0,2025-11-18T17:50:35.548Z,14.6,11.48,-9.02,-0.23,167.1,-60.9,-1.42,-155.6
,,0,2025-11-18T17:50:35.558Z,12.97,11,-6.88,0.13,172.4,-42.31,11.71,-166.72
,,0,2025-11-18T17:50:35.568Z,10.23,8.83,-5.14,0.5,175.21,-36.73,6.5,-171.2
,,0,2025-11-18T17:50:35.578Z,8.53,7.11,-4.65,0.76,172.97,-40,-19.21,-167.18
,,0,2025-11-18T17:50:35.588Z,8.18,6.46,-4.86,1.26,162.04,-42.28,-45.51,-149.66
,,0,2025-11-18T17:50:35.598Z,8.96,6.82,-5.65,1.37,152.22,-39.96,-70.19,-129.02
,,0,2025-11-18T17:50:35.608Z,10.13,8.06,-5.99,1.33,151.24,-33.45,-90.89,-116.16
,,0,2025-11-18T17:50:35.618Z,11.53,9.85,-5.99,0.39,148.84,-24.39,-92.61,-113.94
,,0,2025-11-18T17:50:35.628Z,12.46,10.86,-6.1,0.1,138.92,-16.87,-79.15,-112.92
,,0,2025-11-18T17:50:35.638Z,12.66,11.28,-5.74,0.22,121.09,-10.79,-55.53,-107.06
,,0,2025-11-18T17:50:35.648Z,10.76,9.4,-5.22,0.3,111.21,-4.57,-40.55,-103.45
,,0,2025-11-18T17:50:35.658Z,9.22,7.83,-4.87,0.07,116.61,-6.95,-54.69,-102.75
,,0,2025-11-18T17:50:35.668Z,9.48,8.58,-4,0.53,117.24,-24.66,-66.44,-93.39
,,0,2025-11-18T17:50:35.678Z,10.23,9.43,-3.84,0.94,111.92,-45.38,-67.4,-76.97
,,0,2025-11-18T17:50:35.688Z,11.33,10.06,-4.96,1.58,115.35,-68.09,-66.83,-64.83
,,0,2025-11-18T17:50:35.698Z,12.85,11.08,-6.06,2.33,125.18,-94.37,-57.53,-58.77
,,0,2025-11-18T17:50:35.708Z,13.51,11.68,-6.03,3.14,135.38,-118.9,-39.26,-51.46
,,0,2025-11-18T17:50:35.718Z,13.3,11.52,-5.59,3.62,149.54,-139.94,-21.22,-48.24
,,0,2025-11-18T17:50:35.728Z,12.08,10.66,-4.49,3.5,161.16,-152.81,-6.95,-50.73
,,0,2025-11-18T17:50:35.738Z,10.59,9.52,-3.29,3.26,170.14,-159.63,-5.16,-58.66
,,0,2025-11-18T17:50:35.748Z,9.69,8.85,-2.6,2.96,177.07,-166.28,-11.91,-59.68
,,0,2025-11-18T17:50:35.758Z,9.21,8.6,-2.12,2.51,186.85,-177.73,-20.23,-54
,,0,2025-11-18T17:50:35.768Z,9.01,8.54,-1.65,2.36,201.31,-194.18,-25.36,-46.66
,,0,2025-11-18T17:50:35.778Z,8.85,8.56,-0.84,2.12,224.33,-215.9,-33.05,-51.18
,,0,2025-11-18T17:50:35.788Z,9.28,9.08,-0.31,1.91,246.15,-235.15,-37.76,-62.22
,,0,2025-11-18T17:50:35.798Z,9.2,9.02,-0.86,1.57,252.73,-240.08,-39.15,-68.57
,,0,2025-11-18T17:50:35.808Z,9.18,8.82,-2.08,1.48,241.93,-225.21,-49.34,-73.35
,,0,2025-11-18T17:50:35.818Z,9.79,9.24,-3.08,1.05,213.89,-189.75,-60.46,-78.02
,,0,2025-11-18T17:50:35.828Z,10.51,10.02,-3.14,-0.46,182.54,-153.4,-63.26,-76.07
,,0,2025-11-18T17:50:35.838Z,11.44,11.22,-2.07,-0.86,179.03,-161.69,-49.76,-58.56
,,0,2025-11-18T17:50:35.848Z,11.91,11.88,0.52,-0.73,226.9,-219.97,-31.96,-45.57
,,0,2025-11-18T17:50:35.858Z,12.66,12.52,1.83,-0.19,254.39,-250.14,-16.58,-43.27
,,0,2025-11-18T17:50:35.868Z,13.03,13.01,-0.75,-0.3,253.13,-250.14,-1.92,-38.76
,,0,2025-11-18T17:50:35.878Z,13.25,12.75,-3.59,-0.13,252.27,-250.14,13.1,-29.96
,,0,2025-11-18T17:50:35.888Z,13.08,12.44,-4.01,-0.48,252.92,-250.14,22.32,-30.04
,,0,2025-11-18T17:50:35.898Z,12.37,12.02,-2.72,-1.09,253.51,-250.14,28.93,-29.34
,,0,2025-11-18T17:50:35.908Z,11.96,11.72,-1.85,-1.54,242.54,-239.25,33.89,-20.89
,,0,2025-11-18T17:50:35.918Z,11.94,11.56,-2.78,-1.09,227.97,-224.92,33.35,-16.4
,,0,2025-11-18T17:50:35.928Z,12.5,11.76,-4.14,-0.88,214.97,-212.07,29.91,-18.5
,,0,2025-11-18T17:50:35.938Z,13.18,12.4,-4.47,-0.33,203.83,-200.62,32.5,-15.57
,,0,2025-11-18T17:50:35.948Z,13.09,12.28,-4.48,-0.8,181.36,-177.94,26.54,-22.89
,,0,2025-11-18T17:50:35.958Z,13.6,12.13,-5.96,-1.48,146.94,-142.59,23.15,-26.92
,,0,2025-11-18T17:50:35.968Z,13.12,11.36,-6.37,-1.6,107.07,-101.46,19.39,-28.18
,,0,2025-11-18T17:50:35.978Z,12.31,10.61,-6.03,-1.61,71.18,-63.46,10.82,-30.37
,,0,2025-11-18T17:50:35.988Z,11.99,10.39,-5.7,-1.83,39.96,-28.71,0.7,-27.79
,,0,2025-11-18T17:50:35.998Z,11.84,10.49,-5.17,-1.86,23.45,-11.23,-7.22,-19.27
,,0,2025-11-18T17:50:36.008Z,11.7,10.72,-4.21,-2.05,14.64,-5.31,-11.37,-7.53
,,0,2025-11-18T17:50:36.018Z,11.62,10.49,-4.72,-1.66,15.25,-0.64,-13.71,6.65
,,0,2025-11-18T17:50:36.028Z,11.64,9.87,-6.08,-1.13,25.44,10.47,-16.4,16.38
,,0,2025-11-18T17:50:36.038Z,11.25,9.15,-6.5,-0.69,39.78,27.88,-17.92,22
,,0,2025-11-18T17:50:36.048Z,10.04,8.09,-5.95,-0.24,60.57,49.79,-19.36,28.55
,,0,2025-11-18T17:50:36.058Z,8.95,6.94,-5.63,0.45,83.79,70.83,-24.37,37.54
,,0,2025-11-18T17:50:36.068Z,8.34,6.3,-5.42,0.59,103.17,88.6,-29.98,43.54
,,0,2025-11-18T17:50:36.078Z,8.26,6.35,-5.22,0.82,120.1,104.89,-30.75,49.76
,,0,2025-11-18T17:50:36.088Z,8.13,6.46,-4.8,1.15,137.19,118.44,-32.11,61.34
,,0,2025-11-18T17:50:36.098Z,8.53,7.04,-4.67,1.16,151.55,130.17,-33.37,70.07
,,0,2025-11-18T17:50:36.108Z,9.47,7.89,-5.09,1.21,165.6,143.74,-32.56,75.5
,,0,2025-11-18T17:50:36.118Z,10.38,8.89,-5.31,0.8,182.07,161.33,-29.31,79.14
,,0,2025-11-18T17:50:36.128Z,11.29,10.03,-5.17,0.53,197.19,178.43,-21.84,81.05
,,0,2025-11-18T17:50:36.138Z,11.77,10.77,-4.75,0.13,206.34,187.21,-13.76,85.67
,,0,2025-11-18T17:50:36.148Z,11.95,11.4,-3.53,-0.53,206.84,186.49,-9.15,88.99
,,0,2025-11-18T17:50:36.158Z,12.67,12.36,-2.38,-1.5,205.63,181.47,-3.97,96.64
,,0,2025-11-18T17:50:36.168Z,13.69,13.35,-2.17,-2.12,205.83,175.02,-1.09,108.31
,,0,2025-11-18T17:50:36.178Z,14.84,14.31,-2.64,-2.92,206.74,171.96,-1.28,114.76
,,0,2025-11-18T17:50:36.188Z,16.23,15.48,-3.42,-3.51,218.94,186.76,0.41,114.27
,,0,2025-11-18T17:50:36.198Z,17.13,16.12,-4.4,-3.77,241.95,214.34,5.31,112.11
,,0,2025-11-18T17:50:36.208Z,17.49,16.27,-4.48,-4.6,272.62,250.13,4.78,108.32
,,0,2025-11-18T17:50:36.218Z,17.73,16.41,-3.71,-5.58,272.48,250.13,9.21,107.69
,,0,2025-11-18T17:50:36.228Z,16.88,15.68,-3.82,-4.96,268.98,250.13,7.6,98.63
,,0,2025-11-18T17:50:36.238Z,17.84,15.74,-5.83,-6.03,263.76,250.13,5.96,83.47
,,0,2025-11-18T17:50:36.248Z,18.25,15.9,-5.23,-7.28,262.57,250.13,13.79,78.68
,,0,2025-11-18T17:50:36.258Z,18.24,16.35,-2.25,-7.76,263.35,250.13,35.09,74.55
,,0,2025-11-18T17:50:36.268Z,19.05,16.9,-0.78,-8.76,265.73,250.13,63.65,63.22
,,0,2025-11-18T17:50:36.278Z,18.85,16.67,0.5,-8.78,276.03,250.13,102.5,55.86
,,0,2025-11-18T17:50:36.288Z,18.58,15.99,1.92,-9.26,291.66,250.13,140.89,51.5
,,0,2025-11-18T17:50:36.454Z,8.81,7.18,-0.85,5.03,321.31,-250.14,118.6,163.11
,,0,2025-11-18T17:50:36.463Z,8.77,7.14,-1.82,4.76,319.91,-250.14,106.6,168.55
,,0,2025-11-18T17:50:36.473Z,8.44,6.99,-2.6,3.96,317.7,-250.14,94.49,171.57
,,0,2025-11-18T17:50:36.483Z,8.97,7.09,-4.46,3.22,316.55,-250.14,95.17,169.05
,,0,2025-11-18T17:50:36.493Z,10.9,6.18,-8.77,1.89,311.14,-250.14,105.21,152.21
,,0,2025-11-18T17:50:36.503Z,13.24,3.36,-12.73,-1.36,244.73,-189.79,94.97,121.87
,,0,2025-11-18T17:50:36.513Z,13.73,3.67,-13,-2.4,143.61,-87.47,74.46,86.2
,,0,2025-11-18T17:50:36.523Z,12.29,4.17,-11.15,-3.08,93.02,-7.35,66.19,64.95
,,0,2025-11-18T17:50:36.533Z,10.45,5.25,-8.87,-1.74,91.4,51.31,61.79,43.63
,,0,2025-11-18T17:50:36.543Z,9.17,4.82,-7.65,-1.54,123.24,107.92,57.78,14.21
,,0,2025-11-18T17:50:36.553Z,6.49,4.82,-3.96,-1.77,138.71,132.85,36.35,-16.37
,,0,2025-11-18T17:50:36.563Z,6.7,6.63,0.74,-0.58,105.83,89.87,48.5,-27.79
,,0,2025-11-18T17:50:36.573Z,8.49,7.15,4.44,1.16,81.89,27.29,76.15,-12.76
,,0,2025-11-18T17:50:36.583Z,7.18,5.48,3.2,3.37,84.66,-11.8,82.6,14.31
,,0,2025-11-18T17:50:36.593Z,6.38,4.39,-2.49,3.9,74.6,-23.61,63.97,30.25
,,0,2025-11-18T17:50:36.603Z,9.22,5.01,-6.95,3.4,59.66,-22.68,45.71,30.91
,,0,2025-11-18T17:50:36.613Z,10.7,6.01,-8.5,2.51,49.22,-17.41,42.58,17.5
,,0,2025-11-18T17:50:36.623Z,10.51,6.17,-8.36,1.58,49.78,-8.56,49.03,-0.5
,,0,2025-11-18T17:50:36.633Z,8.72,5.98,-6.26,1.07,58.21,-4.71,54.13,-20.89
,,0,2025-11-18T17:50:36.643Z,6.65,5.49,-3.7,0.67,72.86,-15.71,61.73,-35.37
,,0,2025-11-18T17:50:36.653Z,5.11,4.55,-2.19,0.79,82.66,-35.89,63.54,-38.82
,,0,2025-11-18T17:50:36.663Z,4.68,3.77,-2.46,1.26,85.79,-51.15,56.98,-38.68
,,0,2025-11-18T17:50:36.673Z,5.46,3.68,-3.67,1.68,84.38,-57.68,44.21,-42.89
,,0,2025-11-18T17:50:36.683Z,6.5,4.24,-4.32,2.38,83.52,-55.34,33.62,-52.76
,,0,2025-11-18T17:50:36.693Z,6.94,4.85,-4.11,2.79,86.49,-49.66,26.91,-65.5
,,0,2025-11-18T17:50:36.703Z,7.31,5.54,-3.6,3.13,94.55,-50.82,23.91,-76.06
,,0,2025-11-18T17:50:36.713Z,7.63,6.12,-2.86,3.54,101.01,-54.51,24.81,-81.34
,,0,2025-11-18T17:50:36.723Z,7.35,6.12,-2.45,3.25,109.74,-57.84,26.02,-89.56
,,0,2025-11-18T17:50:36.733Z,8.6,7.23,-1.28,4.47,124.91,-64.06,25.4,-104.18
,,0,2025-11-18T17:50:36.743Z,12.82,10.35,-2.07,7.27,138.49,-75.62,40.5,-108.72
,,0,2025-11-18T17:50:36.753Z,12.58,9.73,-5.25,6.01,143.76,-81.23,63.29,-100.31
,,0,2025-11-18T17:50:36.763Z,12.69,9.08,-7.27,5.07,150.19,-83.86,71.01,-102.38
,,0,2025-11-18T17:50:36.773Z,12.18,8.77,-7.64,3.61,160.31,-89.27,80.58,-106
,,0,2025-11-18T17:50:36.783Z,11.14,8.33,-7.13,1.98,178.46,-100.82,91.76,-115.17
,,0,2025-11-18T17:50:36.793Z,10.38,7.35,-7.32,0.14,191.53,-105.68,96.21,-127.52
,,0,2025-11-18T17:50:36.803Z,11.4,6.85,-9.09,-0.66,194.16,-100.34,90.17,-139.64
,,0,2025-11-18T17:50:36.813Z,12.5,6.93,-10.36,-0.93,189.26,-86.56,80.92,-147.57
,,0,2025-11-18T17:50:36.823Z,13.24,7.35,-10.95,-1.16,184.73,-72.5,72.34,-153.73
,,0,2025-11-18T17:50:36.833Z,13.87,8.16,-11.19,-0.63,181.21,-61.34,66.76,-156.9
,,0,2025-11-18T17:50:36.843Z,14.09,8.59,-11.14,-0.68,184.46,-68.11,67.63,-157.53
,,0,2025-11-18T17:50:36.853Z,13.37,9.74,-9.13,-0.59,203.14,-102.59,78.53,-156.76
,,0,2025-11-18T17:50:36.863Z,10.98,9.68,-5.13,-0.71,235.74,-150.79,101.35,-150.22
,,0,2025-11-18T17:50:36.873Z,9.58,8.37,-4.41,-1.47,269.93,-207.94,110.76,-131.74
,,0,2025-11-18T17:50:36.883Z,10.38,7.7,-6.79,-1.54,292.23,-250.14,109.32,-104.3
,,0,2025-11-18T17:50:36.893Z,12.78,8.39,-9.64,-0.26,283.68,-250.14,108.88,-77.79
,,0,2025-11-18T17:50:36.903Z,17.8,8.04,-15.62,2.89,285.56,-250.14,120.1,-67.47
,,0,2025-11-18T17:50:36.913Z,21.34,7.15,-19.62,4.41,230.99,-191.92,101.07,-79.44
,,0,2025-11-18T17:50:36.923Z,22.39,9.09,-19.62,5.81,171.2,-104.89,89.48,-101.5
,,0,2025-11-18T17:50:36.933Z,19.39,9.55,-16.32,4.29,157,-39.02,96.08,-117.88
,,0,2025-11-18T17:50:36.943Z,14.37,9.31,-10.46,3.2,179.95,-42.23,121.61,-125.74
,,0,2025-11-18T17:50:36.953Z,11.63,6.67,-8.74,3.78,188.64,-68.54,139.04,-107.49
,,0,2025-11-18T17:50:36.963Z,12.41,3.9,-10.77,4.78,173,-75.22,131.26,-83.92
,,0,2025-11-18T17:50:36.973Z,13.53,3.04,-12.11,5.2,143.07,-66.11,104.27,-72.3
,,0,2025-11-18T17:50:36.983Z,12.9,4.68,-10.5,5.85,120.22,-48.89,85.12,-69.4
,,0,2025-11-18T17:50:36.993Z,12.61,6.17,-8.65,6.79,120.43,-29.62,87.71,-77.03
,,0,2025-11-18T17:50:37.003Z,12.49,6.42,-8.34,6.73,128.31,-17.41,94.79,-84.7
,,0,2025-11-18T17:50:37.013Z,12.3,6.24,-7.9,7.07,136.83,-10.23,104.34,-87.92
,,0,2025-11-18T17:50:37.023Z,11.58,5.73,-6.66,7.55,140.58,-6.79,109.7,-87.65
,,0,2025-11-18T17:50:37.033Z,10.74,5.41,-5.36,7.57,142.96,-14.13,112.8,-86.68
,,0,2025-11-18T17:50:37.043Z,10.41,5.27,-4.76,7.61,145.96,-28.63,114.95,-85.27
,,0,2025-11-18T17:50:37.053Z,10.46,5.26,-4.84,7.64,150.33,-46.87,116.65,-82.44
,,0,2025-11-18T17:50:37.063Z,10.52,5.32,-4.8,7.7,157.71,-65.82,119.79,-78.67
,,0,2025-11-18T17:50:37.073Z,10.55,5.3,-5.02,7.61,165.12,-81.76,122.37,-74.87
,,0,2025-11-18T17:50:37.083Z,10.33,5.25,-5.24,7.18,170.16,-94.08,123.23,-70.12
,,0,2025-11-18T17:50:37.093Z,9.59,5.17,-4.66,6.6,177.74,-108.03,124.48,-66.53
,,0,2025-11-18T17:50:37.103Z,9.24,4.96,-4.61,6.3,184.73,-119.05,125.85,-64.15
,,0,2025-11-18T17:50:37.113Z,9.02,4.65,-4.89,5.99,190.71,-129.31,126.04,-61.37
,,0,2025-11-18T17:50:37.123Z,8.78,4.7,-4.78,5.68,196.97,-139.51,127.25,-56.05
,,0,2025-11-18T17:50:37.133Z,8.1,4.83,-3.94,5.18,206.46,-151.66,130.85,-50.02
,,0,2025-11-18T17:50:37.143Z,7.35,4.55,-3.42,4.64,213.64,-160.35,133.31,-46.47
,,0,2025-11-18T17:50:37.153Z,7.08,4.12,-3.65,4.46,215.61,-164.5,132.44,-43.49
,,0,2025-11-18T17:50:37.163Z,7.19,3.9,-4.23,4.32,205.62,-157.12,125.34,-43.4
,,0,2025-11-18T17:50:37.173Z,7.48,4.12,-4.64,4.18,188.99,-141.5,116.89,-45.07
,,0,2025-11-18T17:50:37.183Z,7.66,4.62,-4.43,4.21,171.24,-121.1,111.08,-48.15
,,0,2025-11-18T17:50:37.193Z,7.8,4.9,-4.11,4.47,162.17,-107.94,109.69,-51.15
,,0,2025-11-18T17:50:37.203Z,7.07,4.54,-3.3,4.31,154.77,-98.24,105.36,-56.6
,,0,2025-11-18T17:50:37.213Z,6.68,4.35,-3.12,3.99,144.44,-88.69,95.72,-61.94
,,0,2025-11-18T17:50:37.223Z,6.97,4.68,-3.43,3.86,134.21,-78.83,87.34,-64.58
,,0,2025-11-18T17:50:37.233Z,6.78,5.05,-2.83,3.52,128.31,-69.87,81.61,-70.15
,,0,2025-11-18T17:50:37.243Z,6.85,5.16,-2.81,3.52,124.79,-60.4,74.9,-79.46
,,0,2025-11-18T17:50:37.253Z,6.85,5.24,-2.75,3.45,120.1,-51.53,66.13,-85.99
,,0,2025-11-18T17:50:37.263Z,7.05,5.42,-2.56,3.7,117.07,-44.55,55,-93.25
,,0,2025-11-18T17:50:37.273Z,7.36,5.89,-2.37,3.71,115.87,-39.92,43.92,-99.51
,,0,2025-11-18T17:50:37.283Z,7.64,6.33,-2.25,3.63,116.98,-39.56,33.94,-104.73
,,0,2025-11-18T17:50:37.293Z,7.95,6.77,-2.07,3.61,119.72,-42.22,25,-109.2
,,0,2025-11-18T17:50:37.303Z,8.06,7.01,-1.94,3.47,123.8,-49.87,17.02,-112.02
,,0,2025-11-18T17:50:37.313Z,8.07,7.09,-1.85,3.39,129.35,-61.05,8.31,-113.73
,,0,2025-11-18T17:50:37.323Z,7.95,7.06,-2.01,3.06,136.17,-75.59,-1.44,-113.26
,,0,2025-11-18T17:50:37.333Z,8.08,7.3,-2.1,2.74,144.09,-92.07,-9.05,-110.47
,,0,2025-11-18T17:50:37.343Z,7.95,7.41,-2.18,1.91,152.09,-106.35,-15.37,-107.63
,,0,2025-11-18T17:50:37.353Z,7.98,7.32,-2.81,1.48,157.14,-112.97,-22.21,-106.95
,,0,2025-11-18T17:50:37.363Z,8.33,7.28,-3.83,1.27,159.43,-113.98,-30.08,-107.33
,,0,2025-11-18T17:50:37.373Z,8.78,7.34,-4.62,1.34,159.21,-109.92,-39.36,-108.24
,,0,2025-11-18T17:50:37.383Z,9.1,7.44,-5.07,1.34,158.5,-100.5,-49.31,-112.21
,,0,2025-11-18T17:50:37.393Z,9.37,7.77,-4.98,1.65,161.83,-93.67,-58.73,-118.18
,,0,2025-11-18T17:50:37.403Z,9.49,8.2,-4.42,1.83,165.92,-91.72,-64.69,-122.2
,,0,2025-11-18T17:50:37.413Z,9.52,8.55,-3.77,1.86,170.96,-94.03,-68.06,-125.51
,,0,2025-11-18T17:50:37.423Z,9.54,8.78,-3.31,1.72,176.11,-99.5,-69.98,-127.34
,,0,2025-11-18T17:50:37.433Z,9.14,8.61,-2.85,1.16,178.73,-101.26,-71.5,-128.76
,,0,2025-11-18T17:50:37.443Z,9.12,8.53,-3.02,1.16,180.94,-97.94,-77.26,-131.06
,,0,2025-11-18T17:50:37.453Z,9.6,8.81,-3.59,1.31,183.19,-92.78,-85.69,-132.7
,,0,2025-11-18T17:50:37.463Z,10.33,9.24,-4.3,1.69,182.85,-86.35,-94.33,-130.69
,,0,2025-11-18T17:50:37.473Z,11.52,10.1,-5.14,2.08,180.3,-81.56,-98.28,-127.26
,,0,2025-11-18T17:50:37.483Z,12.35,10.64,-5.83,2.29,172.83,-80.44,-94.71,-120.11
,,0,2025-11-18T17:50:37.493Z,12.44,10.84,-5.71,2.13,167.66,-82.51,-88.39,-116.15
,,0,2025-11-18T17:50:37.503Z,12.51,10.67,-6.06,2.42,161.94,-80.57,-82.16,-113.94
,,0,2025-11-18T17:50:37.513Z,12.6,10.39,-6.58,2.74,156.51,-77.7,-81.39,-108.79
,,0,2025-11-18T17:50:37.523Z,12.89,10.56,-6.71,3.11,153.14,-78.51,-82.93,-102.03
,,0,2025-11-18T17:50:37.533Z,12.83,10.84,-6.2,2.98,151.73,-91.09,-80.28,-90.99
,,0,2025-11-18T17:50:37.543Z,12.68,11,-5.64,2.83,152.53,-108.84,-72.35,-78.65
,,0,2025-11-18T17:50:37.553Z,12.59,10.7,-6,2.84,153.18,-121.89,-63.08,-68.02
,,0,2025-11-18T17:50:37.563Z,12.75,10.18,-7.14,2.8,156.97,-133.63,-56.82,-59.61
,,0,2025-11-18T17:50:37.573Z,12.67,9.84,-7.46,2.82,162.7,-143.38,-55.89,-52.83
,,0,2025-11-18T17:50:37.583Z,11.91,9.84,-6.4,2.01,173.29,-157.61,-55.9,-45.43
,,0,2025-11-18T17:50:37.593Z,11.16,10.17,-4.41,1.26,192.1,-180.24,-54.45,-38.09
,,0,2025-11-18T17:50:37.603Z,11.37,11.12,-2.24,0.72,220.93,-213.26,-49.98,-28.82
,,0,2025-11-18T17:50:37.613Z,12.28,12.23,-1.03,0.34,250.37,-246.53,-38.33,-20.95
,,0,2025-11-18T17:50:37.623Z,13.26,13.11,-1.93,0.41,250.99,-250.14,-17.62,-10.89
,,0,2025-11-18T17:50:37.633Z,13.45,13.21,-2.53,-0.11,250.19,-250.14,3.74,-3.48
,,0,2025-11-18T17:50:37.643Z,12.9,12.79,-1.64,-0.33,251.33,-250.14,21.73,-11.21
,,0,2025-11-18T17:50:37.653Z,12.24,12.1,-1.68,-0.64,254.06,-250.14,37.82,-23.36
,,0,2025-11-18T17:50:37.663Z,11.01,10.69,-2.59,-0.4,256.43,-250.14,45.94,-32.79
,,0,2025-11-18T17:50:37.673Z,9.78,9.31,-2.98,-0.48,258.29,-250.14,43.39,-47.57
,,0,2025-11-18T17:50:37.683Z,9.56,9.31,-2.14,-0.35,262.84,-250.14,40.64,-69.74
,,0,2025-11-18T17:50:37.693Z,10.23,10.23,0.09,-0.38,268.53,-250.14,42.06,-88.16
,,0,2025-11-18T17:50:37.703Z,11.67,11.4,2.39,-0.84,272.55,-250.14,49.13,-96.45
,,0,2025-11-18T17:50:37.713Z,13.1,12.35,4.05,-1.62,273.91,-250.14,62.21,-92.68
,,0,2025-11-18T17:50:37.723Z,13.74,13.02,3.7,-2.34,274.47,-250.14,75.95,-83.66
,,0,2025-11-18T17:50:37.733Z,13.73,13.39,0.9,-2.89,275.54,-250.14,87.64,-75.33
,,0,2025-11-18T17:50:37.743Z,14.06,13.31,-3.43,-2.99,274.34,-250.14,95,-60.56
,,0,2025-11-18T17:50:37.753Z,16.23,13.91,-7.2,-4.25,280.46,-250.14,109.53,-63.99
,,0,2025-11-18T17:50:37.763Z,16.35,13.04,-7.88,-5.93,286.76,-250.14,125.66,-62.21
,,0,2025-11-18T17:50:37.773Z,14.6,11.05,-6.54,-6.93,289.35,-250.14,134.77,-54.69
,,0,2025-11-18T17:50:37.783Z,12.23,8.12,-5.12,-7.58,281.93,-250.14,122.76,-42.97
,,0,2025-11-18T17:50:37.793Z,11.12,6.19,-5.46,-7.46,258.72,-238.37,95.82,-30.56
,,0,2025-11-18T17:50:37.803Z,10.74,6.05,-6.14,-6.42,218.93,-208.35,63.7,-21.45
,,0,2025-11-18T17:50:37.813Z,11.35,7.74,-6.3,-5.41,178.72,-173.2,39.13,-20.31
,,0,2025-11-18T17:50:37.823Z,12.28,10.41,-5.68,-3.2,148.39,-143.43,32.26,-20.21
,,0,2025-11-18T17:50:37.833Z,14.48,14.01,2.64,2.54,142.36,-135.34,38.37,-21.85
,,0,2025-11-18T17:50:37.843Z,16.02,12.68,4.8,-8.55,189.73,-179.65,55.98,24.3
,,0,2025-11-18T17:50:37.853Z,15.45,5.48,-5.25,-13.46,264.22,-238.34,70.92,89.3
,,0,2025-11-18T17:50:37.863Z,17.61,1.6,-16.08,-7.02,240.66,-223.49,20.69,86.85
,,0,2025-11-18T17:50:37.873Z,19.45,5.69,-18.07,-4.39,115.08,-105.78,-18.32,41.46
,,0,2025-11-18T17:50:37.883Z,15.33,9.1,-11.22,-5.12,25.95,-19.58,-13.72,10.1
,,0,2025-11-18T17:50:37.893Z,11.88,7.68,-7.32,-5.34,10.24,8.94,-4.38,-2.4
,,0,2025-11-18T17:50:37.903Z,10.96,5.6,-8.13,-4.74,36.98,33.27,-16.12,-1.1
,,0,2025-11-18T17:50:37.913Z,11.32,5.63,-8.83,-4.3,75.37,67.54,-33.39,2.11
,,0,2025-11-18T17:50:37.923Z,12.05,7.18,-8.73,-4.17,106.42,99.32,-38.21,-0.89
,,0,2025-11-18T17:50:37.933Z,12,8.16,-7.92,-3.83,125.64,120.53,-35.27,-3.57
,,0,2025-11-18T17:50:37.943Z,10.83,7.98,-6.36,-3.63,133.46,128.69,-35.32,-1.05
,,0,2025-11-18T17:50:37.953Z,9.86,7.79,-5.09,-3.26,127.49,121.31,-38.41,7.89
,,0,2025-11-18T17:50:37.963Z,9.57,7.78,-4.9,-2.67,122.19,111.65,-45.64,19.51
,,0,2025-11-18T17:50:37.973Z,10.06,8.71,-4.32,-2.58,121.47,102.5,-53.35,37.47
,,0,2025-11-18T17:50:37.983Z,10.25,9.24,-3.71,-2.47,111.84,79.3,-55.36,56.18
,,0,2025-11-18T17:50:37.993Z,10.43,9.53,-3.65,-2.16,109.5,45.75,-59.47,79.76
,,0,2025-11-18T17:50:38.003Z,10.86,10.1,-3.55,-1.79,119.87,12.46,-62.46,101.55
,,0,2025-11-18T17:50:38.013Z,11.45,10.48,-4.37,-1.5,137.94,-12.37,-67.35,119.74
,,0,2025-11-18T17:50:38.023Z,12.24,10.97,-5.17,-1.7,155.06,-36.31,-71.32,132.81
,,0,2025-11-18T17:50:38.033Z,12.78,11.64,-5.02,-1.68,172.28,-60.85,-72.16,144.11
,,0,2025-11-18T17:50:38.043Z,12.54,11.48,-4.64,-1.95,196.49,-87.18,-74.44,159.59
,,0,2025-11-18T17:50:38.053Z,12.37,11.41,-4.48,-1.66,225.88,-117.76,-78.53,176.03
,,0,2025-11-18T17:50:38.063Z,12.93,12.04,-4.45,-1.59,255.5,-151.66,-84.11,187.63
,,0,2025-11-18T17:50:38.073Z,13.61,12.56,-4.98,-1.65,272.72,-171.98,-86.4,193.21
,,0,2025-11-18T17:50:38.083Z,14.41,12.67,-6.62,-1.77,272.4,-172.41,-89.31,191.05
,,0,2025-11-18T17:50:38.093Z,15.03,12.92,-7.47,-1.74,261.1,-162.19,-93.94,181.78
,,0,2025-11-18T17:50:38.103Z,15.05,13.39,-6.68,-1.67,244.96,-146.66,-95.5,171.39
,,0,2025-11-18T17:50:38.113Z,14.66,13.42,-5.63,-1.75,228.94,-128.95,-95.54,163.27
,,0,2025-11-18T17:50:38.123Z,14.4,13.23,-5.33,-2,218.01,-115.19,-96.03,158.23
,,0,2025-11-18T17:50:38.133Z,14.3,13.13,-5.29,-2.02,204,-94.75,-97.02,152.4
,,0,2025-11-18T17:50:38.143Z,14.78,13.33,-5.98,-2.24,180.37,-59.5,-93.85,142.08
,,0,2025-11-18T17:50:38.153Z,15.25,13.59,-6.65,-1.87,159.74,-12.82,-92.43,129.65
,,0,2025-11-18T17:50:38.163Z,16.22,13.2,-9.25,-1.85,161.3,66.54,-87.02,118.4
,,0,2025-11-18T17:50:38.173Z,16.5,12.56,-10.65,-1.09,223.29,173.95,-106.59,90.77
,,0,2025-11-18T17:50:38.183Z,15.82,10.62,-11.24,-3.34,304.94,250.13,-163.85,59.8
,,0,2025-11-18T17:50:38.193Z,18.26,14.07,-10.43,-5.15,283.46,250.13,-110.32,74.92
,,0,2025-11-18T17:50:38.203Z,21.2,15.97,-10.18,-9.53,267.87,250.13,-50.57,81.42
,,0,2025-11-18T17:50:38.213Z,21.1,14.98,-9.09,-11.75,255.05,250.13,9.28,48.98
,,0,2025-11-18T17:50:38.223Z,19.52,12.74,-6.18,-13.43,259.98,250.13,64.11,30.24
,,0,2025-11-18T17:50:38.233Z,16.21,9.48,-0.96,-13.11,262.88,250.13,75.44,29.13
,,0,2025-11-18T17:50:38.243Z,12.79,7.77,1.98,-9.97,270.55,250.13,102.96,5.8
,,0,2025-11-18T17:50:38.253Z,8.77,4.16,3.26,-7,268.54,250.13,95.82,-19.08
,,0,2025-11-18T17:50:38.263Z,6.82,3.7,3.21,-4.75,269.24,250.13,86.04,-50.24
,,0,2025-11-18T17:50:38.273Z,4.85,4.37,0.7,-1.97,267.75,250.13,69.81,-65.2
,,0,2025-11-18T17:50:38.283Z,5.75,5.15,-0.88,-2.4,271.35,250.13,38.66,-97.85
,,0,2025-11-18T17:50:38.293Z,7.88,7.2,0.62,-3.15,294.36,250.13,49.53,-147.07
,,0,2025-11-18T17:50:38.303Z,9.62,7.64,5.47,-2.1,311.17,250.13,62.34,-174.29
,,0,2025-11-18T17:50:38.313Z,12.6,7.7,9.94,0.73,322.44,250.13,83.97,-185.34
,,0,2025-11-18T17:50:38.323Z,11.79,7.01,8.35,4.49,319.32,250.13,100.02,-171.45
,,0,2025-11-18T17:50:38.333Z,10.23,6.27,3.45,7.32,300.64,249.76,87.35,-142.75
,,0,2025-11-18T17:50:38.343Z,10.38,6.58,-0.8,8,208.7,167.41,59.14,-109.68
,,0,2025-11-18T17:50:38.353Z,11.42,8.48,-1.6,7.47,123.36,85.11,47.4,-75.67
,,0,2025-11-18T17:50:38.363Z,11.9,9.85,-1.61,6.49,76.39,7.8,51.69,-55.69
,,0,2025-11-18T17:50:38.373Z,11.01,9.11,-3.32,5.22,77.75,-33.89,54.94,-43.34
,,0,2025-11-18T17:50:38.383Z,9.26,7.07,-4.18,4.28,79.63,-56.44,46.21,-31.95
,,0,2025-11-18T17:50:38.393Z,8.16,5.78,-4.7,3.32,79.18,-70.82,25.61,-24.44
,,0,2025-11-18T17:50:38.403Z,8.57,6.69,-3.56,4,88,-83.29,15.31,-23.93
,,0,2025-11-18T17:50:38.413Z,9.31,6.68,-3.94,5.14,87.94,-84.49,17.01,-17.47
,,0,2025-11-18T17:50:38.423Z,10.54,6.24,-6.6,5.35,64.95,-60.44,12.93,-19.96
,,0,2025-11-18T17:50:38.433Z,9.63,6.27,-6.15,3.94,49.71,-36.21,11.31,-32.11
,,0,2025-11-18T17:50:38.443Z,7.35,5.42,-4.17,2.69,31.27,-5.98,6.57,-29.98
,,0,2025-11-18T17:50:38.453Z,6.64,4.48,-4.13,2.64,21.42,3.05,3.91,-20.84
,,0,2025-11-18T17:50:38.629Z,24.83,19.62,-6.57,13.73,110.31,-30.54,46.2,95.4
,,0,2025-11-18T17:50:38.637Z,22.98,12.09,16.78,10.01,160.36,-90.6,123.32,-47.93
,,0,2025-11-18T17:50:38.647Z,11.79,4.01,4.52,10.13,166.65,-135.27,80.69,-54.45
,,0,2025-11-18T17:50:38.657Z,10.64,1.93,-6.82,7.93,113.25,-107.4,17.51,31.35
,,0,2025-11-18T17:50:38.667Z,9.48,7.47,-3.62,4.58,105.14,-92.74,-18.74,45.85
,,0,2025-11-18T17:50:38.677Z,9.19,7.81,-4.72,1.09,91,-90.53,-8.05,4.57
,,0,2025-11-18T17:50:38.687Z,7.18,4.81,-4.81,2.29,93.41,-91.01,-20.5,-4.67
,,0,2025-11-18T17:50:38.697Z,8.65,4.46,-6.65,3.27,97.38,-89.02,-38.78,7.48
,,0,2025-11-18T17:50:38.707Z,9.46,4.97,-6.9,4.14,104.38,-77.37,-64.3,27.84
,,0,2025-11-18T17:50:38.717Z,10.36,6.76,-6.91,3.74,106.14,-73.34,-71.39,28.09
,,0,2025-11-18T17:50:38.727Z,10.97,6.96,-7.59,3.79,104.99,-71.24,-73.6,23.01
,,0,2025-11-18T17:50:38.737Z,11.07,6.55,-8.02,3.91,104.1,-66.95,-77.34,19.32
,,0,2025-11-18T17:50:38.747Z,10.43,6.32,-7.41,3.72,106.77,-64.97,-82.73,18.3
,,0,2025-11-18T17:50:38.757Z,9.71,6.26,-6.63,3.32,114.55,-68.89,-89.24,20.29
,,0,2025-11-18T17:50:38.767Z,10.04,6.35,-7.12,3.12,118.85,-70.5,-94.44,15.44
,,0,2025-11-18T17:50:38.777Z,10.57,6.6,-7.45,3.56,119.28,-65.89,-99.15,7.57
,,0,2025-11-18T17:50:38.787Z,11.44,6.89,-7.6,5.08,118.26,-47.88,-108.12,-1.43
,,0,2025-11-18T17:50:38.797Z,12.35,7.67,-7.3,6.37,114.64,-27.85,-110.39,-13.47
,,0,2025-11-18T17:50:38.807Z,12.28,8.25,-6.26,6.59,107.4,-10.14,-102.93,-28.94
,,0,2025-11-18T17:50:38.817Z,11.32,7.87,-5.12,6.33,93.72,-2.29,-87.05,-34.65
,,0,2025-11-18T17:50:38.827Z,9.78,8.89,-2.31,3.35,116.08,-29.92,-93.21,-62.38
,,0,2025-11-18T17:50:38.837Z,8.66,7.35,-2.23,4,87.03,-56.22,-53.21,-39.78
,,0,2025-11-18T17:50:38.847Z,6.28,5.19,-1.31,3.28,99.66,-58.24,-67.02,-45.24
,,0,2025-11-18T17:50:38.857Z,7.84,7.09,-2.59,2.13,105.97,-41.35,-80.56,-55.05
,,0,2025-11-18T17:50:38.867Z,9.93,8.51,-5.07,0.7,94.74,-31.31,-66.93,-59.3
,,0,2025-11-18T17:50:38.877Z,10.11,9.12,-4.34,0.47,96.17,-23.91,-65.89,-65.85
,,0,2025-11-18T17:50:38.887Z,14.18,12.54,-4.28,5.05,89.15,-25.52,-43.05,-73.78
,,0,2025-11-18T17:50:38.897Z,9.95,7.99,-5.91,-0.47,91.73,-15.76,-38.02,-81.98
,,0,2025-11-18T17:50:38.907Z,12.46,10.23,-6.91,1.64,102.23,-9.91,-42.56,-92.42
,,0,2025-11-18T17:50:38.917Z,13.13,12.07,-4.38,2.72,115.16,-16.87,-24.89,-111.17
,,0,2025-11-18T17:50:38.927Z,13.08,12.1,-3.01,3.93,129.06,-26.97,-12.37,-125.6
,,0,2025-11-18T17:50:38.937Z,12.6,11.15,-3.46,4.74,140.02,-32.55,-11.55,-135.69
,,0,2025-11-18T17:50:38.947Z,12.95,11.23,-4.03,5.05,146.89,-24.13,-14.07,-144.21
,,0,2025-11-18T17:50:38.957Z,13.06,11.38,-4.16,4.89,153.15,-13.99,-14.33,-151.83
,,0,2025-11-18T17:50:38.967Z,13.05,11.27,-4.82,4.5,158.67,-3.22,-15.44,-157.89
,,0,2025-11-18T17:50:38.977Z,12.87,11.05,-5,4.29,161.87,4.6,-18.18,-160.78
,,0,2025-11-18T17:50:38.987Z,12.38,10.24,-5.77,3.91,168.73,20.43,-31.07,-164.58
,,0,2025-11-18T17:50:38.997Z,12.73,10.17,-6.92,3.27,182.86,41.9,-44.76,-172.27
,,0,2025-11-18T17:50:39.007Z,12.88,9.69,-7.72,3.53,212.2,86.53,-62.84,-183.29
,,0,2025-11-18T17:50:39.017Z,13.88,10.88,-8.31,2.26,243.56,125.22,-70.24,-196.74
,,0,2025-11-18T17:50:39.027Z,13.9,11.83,-7.02,1.95,251.63,140.11,-61.76,-199.68
,,0,2025-11-18T17:50:39.037Z,12.94,11.65,-5.11,2.33,247.43,144.79,-58.34,-191.97
,,0,2025-11-18T17:50:39.047Z,12.56,11.39,-4.63,2.57,237.25,140.83,-57.88,-181.95
,,0,2025-11-18T17:50:39.057Z,12.12,11.26,-3.68,2.52,223.44,131.01,-60.44,-170.62
,,0,2025-11-18T17:50:39.067Z,13.38,12.65,-3.1,3.1,200.97,114.74,-43.97,-159.02
,,0,2025-11-18T17:50:39.077Z,13,12.34,-3.37,2.3,185.41,105.36,-41.29,-146.87
,,0,2025-11-18T17:50:39.087Z,13.14,12.05,-4.91,1.84,162.84,92.07,-26.53,-131.67
,,0,2025-11-18T17:50:39.097Z,13.01,11.29,-6.29,1.51,147.86,84.69,-11.37,-120.66
,,0,2025-11-18T17:50:39.107Z,12.4,10.04,-7.11,1.52,143.3,85.07,-14.34,-114.42
,,0,2025-11-18T17:50:39.117Z,12.49,10.33,-6.89,1.32,150.2,94.89,-23.86,-113.95
,,0,2025-11-18T17:50:39.127Z,12.66,11.61,-4.98,0.8,151.16,102.05,-33.62,-106.32
,,0,2025-11-18T17:50:39.137Z,14.08,13.5,-3.61,1.79,115.79,76.35,-12.13,-86.21
,,0,2025-11-18T17:50:39.147Z,13.07,12.87,-1.71,1.48,62.99,-6.11,21.63,-58.84
,,0,2025-11-18T17:50:39.157Z,11.67,11.05,3.29,-1.83,158.16,-148.82,36.85,-38.86
,,0,2025-11-18T17:50:39.167Z,14.36,9.43,10.49,-2.71,255.72,-250.14,40.95,-33.84
,,0,2025-11-18T17:50:39.177Z,17.49,7.05,14.38,-7.01,254.89,-250.14,27.02,-40.88
,,0,2025-11-18T17:50:39.187Z,16.35,6.7,11.64,-9.34,255.77,-250.14,3.13,-53.31
,,0,2025-11-18T17:50:39.197Z,12.55,6.43,3.16,-10.3,260.44,-250.14,-23.4,-68.64
,,0,2025-11-18T17:50:39.207Z,10.61,7.36,-1.43,-7.5,275.64,-250.14,-46.11,-106.23
,,0,2025-11-18T17:50:39.217Z,10.54,8.6,-0.72,-6.05,246.45,-193.21,-60.2,-140.66
,,0,2025-11-18T17:50:39.227Z,12.47,10.14,2.64,-6.77,213.14,-105.76,-57.85,-175.77
,,0,2025-11-18T17:50:39.237Z,12.88,9.25,5.56,-7.03,200.13,-55.48,-44.74,-187.01
,,0,2025-11-18T17:50:39.247Z,11.54,7.77,6.31,-5.74,190.87,-31.48,-42.35,-183.44
,,0,2025-11-18T17:50:39.257Z,11.69,7.7,7.7,-4.23,179.51,-22.4,-54.99,-169.4
,,0,2025-11-18T17:50:39.267Z,11.97,8.35,7.7,-3.76,160.96,-20.3,-59.43,-148.21
,,0,2025-11-18T17:50:39.277Z,11.42,8.33,7.04,-3.37,140.78,-24.34,-56.92,-126.44
,,0,2025-11-18T17:50:39.287Z,11.2,8.74,6.5,-2.6,126.55,-31.51,-53.83,-110.11
,,0,2025-11-18T17:50:39.297Z,11.58,9.44,6.4,-2.02,111.49,-50.24,-40.37,-90.97
,,0,2025-11-18T17:50:39.307Z,10.74,9.36,5.13,-1.13,106.13,-70.96,-34.63,-70.91
,,0,2025-11-18T17:50:39.317Z,10.84,10.09,3.93,-0.58,112.16,-94.18,-31.08,-52.4
,,0,2025-11-18T17:50:39.327Z,11.27,10.89,2.88,0.1,123.69,-116.96,-23.58,-32.62
,,0,2025-11-18T17:50:39.337Z,10.38,10.32,1.05,-0.1,140.32,-137.44,-19.53,-20.5
,,0,2025-11-18T17:50:39.347Z,11.23,11.19,-0.94,0.17,153.26,-151.98,-18.17,-7.6
,,0,2025-11-18T17:50:39.357Z,11.3,11.2,-1.53,0.1,159.78,-159.62,-6.51,-2.85
,,0,2025-11-18T17:50:39.367Z,11.41,11.21,-2.09,0.4,168.83,-168.18,-3.84,14.26
,,0,2025-11-18T17:50:39.377Z,11.13,10.49,-3.7,0.02,180.82,-178.74,-4.48,26.95
,,0,2025-11-18T17:50:39.387Z,10.69,10.08,-3.57,-0.28,183.95,-179.86,-1.66,38.55
,,0,2025-11-18T17:50:39.397Z,10.16,9.5,-3.57,-0.29,195.31,-188.15,-3.28,52.32
,,0,2025-11-18T17:50:39.407Z,9.68,9.2,-3,-0.1,210.04,-198.73,-2.22,67.94
,,0,2025-11-18T17:50:39.417Z,8.85,8.44,-2.57,-0.54,232.29,-216.18,-6.68,84.74
,,0,2025-11-18T17:50:39.427Z,8.92,8.07,-3.68,-0.98,248.45,-227.85,-10.59,98.5
,,0,2025-11-18T17:50:39.437Z,9.13,7.93,-4.45,-0.8,251.51,-224.62,-14.77,112.19
,,0,2025-11-18T17:50:39.447Z,9.34,7.97,-4.85,-0.41,245.41,-211.7,-17.99,122.81
,,0,2025-11-18T17:50:39.457Z,9.14,7.79,-4.78,-0.24,235.31,-193.37,-24.36,131.85
,,0,2025-11-18T17:50:39.467Z,8.94,8.18,-3.61,-0.34,230.23,-177.27,-20.62,145.44
,,0,2025-11-18T17:50:39.477Z,8.41,7.61,-3.58,-0.02,228.52,-172.2,-21.04,148.75
,,0,2025-11-18T17:50:39.487Z,8.42,7.34,-4.11,0.48,228.79,-165.55,-22.11,156.37
,,0,2025-11-18T17:50:39.497Z,8.55,7.47,-4.14,0.48,236.79,-164.15,-21.68,169.27
,,0,2025-11-18T17:50:39.507Z,8.83,7.68,-4.28,0.81,241.42,-162.79,-23.8,176.68
,,0,2025-11-18T17:50:39.517Z,9.56,7.87,-5.33,1.05,235.91,-153.32,-27.5,177.18
,,0,2025-11-18T17:50:39.527Z,9.84,8.43,-5.02,0.75,223.87,-138.66,-29.47,173.27
,,0,2025-11-18T17:50:39.537Z,9.97,8.84,-4.53,0.77,215.21,-122.64,-30.72,174.16
,,0,2025-11-18T17:50:39.547Z,10.25,8.98,-4.91,0.65,209.65,-101.44,-35.02,180.1
,,0,2025-11-18T17:50:39.557Z,10.62,9.43,-4.9,-0.02,206.86,-80.4,-43.28,185.62
,,0,2025-11-18T17:50:39.567Z,11.29,10.36,-4.36,-1.01,207.75,-67.63,-49.62,190.06
,,0,2025-11-18T17:50:39.577Z,12.07,11.39,-3.75,-1.35,212.11,-65.53,-53.35,194.55
,,0,2025-11-18T17:50:39.587Z,13.01,12.64,-2.81,-1.3,217.77,-69.98,-57.87,197.93
,,0,2025-11-18T17:50:39.597Z,13.66,13.43,-1.83,-1.68,218.2,-68.15,-57.56,199.14
,,0,2025-11-18T17:50:39.607Z,13.98,13.8,-1.64,-1.51,213.33,-56.29,-54.68,198.37
,,0,2025-11-18T17:50:39.617Z,14.04,13.87,-2.1,-0.54,204.32,-34.39,-51.63,194.68
,,0,2025-11-18T17:50:39.627Z,13.58,13.42,-2.11,-0.26,190.43,-6.15,-48.75,183.98
,,0,2025-11-18T17:50:39.637Z,13.15,12.9,-2.54,-0.25,175.93,29.83,-48.69,166.4
,,0,2025-11-18T17:50:39.647Z,12.75,12.38,-3.03,-0.33,172.95,69.24,-52.08,149.68
,,0,2025-11-18T17:50:39.657Z,12.46,12.23,-1.66,-1.75,170.06,85.85,-50.12,137.98
,,0,2025-11-18T17:50:39.667Z,13.2,12.75,1.85,-2.87,153.36,71.21,-35.04,131.22
,,0,2025-11-18T17:50:39.677Z,13.07,12.48,2.92,-2.56,148.72,44.55,-15,141.09
,,0,2025-11-18T17:50:39.687Z,11.41,11.22,1.45,-1.49,148.48,24.39,-9.73,146.15
,,0,2025-11-18T17:50:39.697Z,10.19,10.13,-0.69,-0.9,138.17,16.76,-12.71,136.56
,,0,2025-11-18T17:50:39.707Z,9.97,9.57,-2.74,-0.46,127.8,20.02,-18.09,124.92
,,0,2025-11-18T17:50:39.717Z,10.33,9.57,-3.87,0.31,123.87,35.49,-23.97,116.24
,,0,2025-11-18T17:50:39.727Z,10.41,9.31,-4.64,0.31,122.98,54.79,-24.83,107.27
,,0,2025-11-18T17:50:39.737Z,10.95,9.18,-5.95,-0.38,120.43,72.02,-25.03,93.21
,,0,2025-11-18T17:50:39.747Z,11.14,8.87,-6.7,-0.59,121.35,87.76,-21.97,80.89
,,0,2025-11-18T17:50:39.757Z,11.11,8.79,-6.73,-1.02,120.83,94.69,-13.9,73.76
,,0,2025-11-18T17:50:39.767Z,10.81,8.41,-6.75,-0.7,113.34,89.02,-7.6,69.74
,,0,2025-11-18T17:50:39.777Z,10.68,7.94,-7.14,-0.31,109.38,88.58,-5.58,63.93
,,0,2025-11-18T17:50:39.787Z,10.86,7.76,-7.59,0.23,109.3,92.27,-5.9,58.27
,,0,2025-11-18T17:50:39.797Z,10.94,8.02,-7.43,0.49,108.97,94.42,-2.27,54.36
,,0,2025-11-18T17:50:39.807Z,10.11,7.82,-6.4,0.02,103.26,90.27,9.3,49.27
,,0,2025-11-18T17:50:39.817Z,9.62,8.27,-4.91,0.22,88.23,72.11,21.95,45.85
,,0,2025-11-18T17:50:39.827Z,8.81,7.96,-3.75,0.36,84.49,49.65,38.98,56.15
,,0,2025-11-18T17:50:39.837Z,8.49,7.66,-3.65,-0.01,80.52,10.85,43.46,66.91
,,0,2025-11-18T17:50:39.847Z,8.5,7.09,-4.63,0.77,100.73,-11.3,56.47,82.64
,,0,2025-11-18T17:50:39.857Z,9.07,6.3,-6.41,1.18,102.69,-22.12,53.69,84.7
,,0,2025-11-18T17:50:39.867Z,11.28,7,-8.67,1.74,92.6,-13.11,47.76,78.24
,,0,2025-11-18T17:50:39.877Z,12.11,7.82,-9.13,1.5,91.83,3.54,54.7,73.67
,,0,2025-11-18T17:50:39.887Z,12.47,8.33,-9.16,1.54,96.43,14.1,62.4,72.15
,,0,2025-11-18T17:50:39.897Z,13.04,8.72,-9.6,1.35,109.28,8.44,80.44,73.48
,,0,2025-11-18T17:50:39.907Z,12.56,8.31,-9.38,0.83,120.23,2.35,93.66,75.34
,,0,2025-11-18T17:50:39.917Z,12.52,7.5,-10.02,0.45,124.16,0.06,98.37,75.76
,,0,2025-11-18T17:50:39.927Z,13.74,7.02,-11.8,0.58,128.59,0.75,100.52,80.2
,,0,2025-11-18T17:50:39.937Z,14.46,7.19,-12.49,1.2,136.24,3.17,100.69,91.73
,,0,2025-11-18T17:50:39.947Z,14.29,7.5,-12.02,1.89,148.21,-2.47,105.02,104.54
,,0,2025-11-18T17:50:39.957Z,14.68,7.85,-12,3.14,159.46,-10.98,111.09,113.87
,,0,2025-11-18T17:50:39.967Z,15.26,8.32,-12.38,3.17,173.56,-21.34,123.93,119.63
,,0,2025-11-18T17:50:39.977Z,16.18,7.84,-13.56,4.05,189.39,-13,136.33,130.82
,,0,2025-11-18T17:50:39.987Z,16.99,7.16,-14.66,4.71,189.87,4.21,139.06,129.21
,,0,2025-11-18T17:50:39.997Z,16.93,7.44,-14.35,5.04,194.39,19.67,142.6,130.63
,,0,2025-11-18T17:50:40.007Z,16.83,7.32,-14.28,5.08,204.6,34.6,147.8,137.18
,,0,2025-11-18T17:50:40.017Z,17.25,7.15,-14.66,5.62,206.83,48.63,145.67,138.54
,,0,2025-11-18T17:50:40.027Z,17.21,7.96,-14.47,4.85,210.79,56.84,149.29,137.53
,,0,2025-11-18T17:50:40.037Z,16.52,8.18,-13.84,3.78,210.79,56.94,152.74,133.64
,,0,2025-11-18T17:50:40.047Z,15.77,7.7,-13.37,3.26,204.94,53.76,152.99,125.32
,,0,2025-11-18T17:50:40.057Z,15.28,6.87,-13.37,2.74,199.17,59.63,146.98,120.45
,,0,2025-11-18T17:50:40.067Z,15.38,6.45,-13.73,2.55,192.03,71.53,136.9,114.1
,,0,2025-11-18T17:50:40.077Z,15.35,6.64,-13.56,2.78,186.89,80.98,130.34,106.67
,,0,2025-11-18T17:50:40.087Z,14.6,6.74,-12.56,3.16,183.76,80.18,131.21,100.61
,,0,2025-11-18T17:50:40.097Z,13.48,5.81,-11.53,3.85,176.88,70.78,131.11,95.33
,,0,2025-11-18T17:50:40.107Z,13.07,4.81,-11.23,4.67,170.06,64.24,126.24,94.11
,,0,2025-11-18T17:50:40.117Z,12.62,4.26,-10.83,4.88,167.63,52.15,125.21,98.5
,,0,2025-11-18T17:50:40.127Z,12.31,3.61,-10.44,5.41,167.12,40.62,122.73,105.9
,,0,2025-11-18T17:50:40.137Z,12.43,2.98,-10.58,5.8,167.19,37.74,117.89,112.39
,,0,2025-11-18T17:50:40.147Z,12.68,2.8,-10.87,5.88,168.71,45.77,113.34,116.29
,,0,2025-11-18T17:50:40.157Z,12.6,2.64,-10.95,5.64,171.96,56.12,110.27,119.41
,,0,2025-11-18T17:50:40.167Z,12.42,2.66,-10.77,5.59,175.99,66.59,109.11,120.97
,,0,2025-11-18T17:50:40.177Z,12.38,2.56,-10.65,5.78,178,76.58,105.73,120.99
,,0,2025-11-18T17:50:40.187Z,12.15,2.47,-10.51,5.59,179.45,85.58,103.61,118.92
,,0,2025-11-18T17:50:40.197Z,11.6,2.75,-9.81,5.55,184.72,90.73,104.13,122.67
,,0,2025-11-18T17:50:40.207Z,11.09,2.78,-9.04,5.8,185.08,93.36,102.43,122.66
,,0,2025-11-18T17:50:40.217Z,10.91,2.89,-8.92,5.58,182.38,94.25,101.74,118.44
,,0,2025-11-18T17:50:40.227Z,10.34,2.77,-8.68,4.89,181.35,95,103.96,114.25
,,0,2025-11-18T17:50:40.237Z,9.77,2.41,-8.46,4.24,179.12,93.7,106.19,109.67
,,0,2025-11-18T17:50:40.247Z,9.58,2,-8.36,4.23,176.35,95.69,103.28,106.19
,,0,2025-11-18T17:50:40.257Z,10.11,1.88,-8.73,4.75,175.36,101.8,99.47,102.44
,,0,2025-11-18T17:50:40.267Z,10.26,1.87,-8.75,5.02,176.6,109.18,98.69,97.61
,,0,2025-11-18T17:50:40.277Z,9.9,1.73,-8.35,5.03,178.64,113.49,102.4,92.45
,,0,2025-11-18T17:50:40.287Z,9.2,1.11,-7.62,5.02,177.89,110.98,105.16,90.92
,,0,2025-11-18T17:50:40.297Z,8.78,0.46,-7.25,4.93,173.89,103.05,105.88,91.71
,,0,2025-11-18T17:50:40.307Z,8.42,-0.14,-7.01,4.67,167.99,91.19,105.7,93.45
,,0,2025-11-18T17:50:40.317Z,8.27,-0.38,-6.95,4.46,163.66,80.22,104.53,97.08
,,0,2025-11-18T17:50:40.327Z,8.45,-0.64,-7.07,4.59,159.93,73.28,102.54,98.46
,,0,2025-11-18T17:50:40.337Z,8.76,-0.94,-7.41,4.56,155.9,71.9,99.37,96.24
,,0,2025-11-18T17:50:40.347Z,8.38,-1.05,-7.16,4.23,154.31,70.92,99.3,94.46
,,0,2025-11-18T17:50:40.357Z,7.69,-1.23,-6.38,4.11,153.84,68.49,100.62,94.09
,,0,2025-11-18T17:50:40.367Z,6.98,-1.54,-5.59,3.88,151.04,62.71,99.89,94.36
,,0,2025-11-18T17:50:40.377Z,6.78,-1.73,-5.44,3.65,148.14,55.54,98.6,95.59
,,0,2025-11-18T17:50:40.387Z,6.4,-2.01,-5.1,3.3,145.51,45.89,98.45,96.82
,,0,2025-11-18T17:50:40.397Z,6.36,-2.39,-4.78,3.44,143.58,42.19,95.42,98.64
,,0,2025-11-18T17:50:40.407Z,6.68,-2.6,-4.93,3.68,141.37,42.47,91.14,99.37
,,0,2025-11-18T17:50:40.417Z,6.76,-2.6,-5,3.74,140.64,44.15,89.15,99.42
,,0,2025-11-18T17:50:40.427Z,6.62,-2.57,-4.68,3.9,141.53,45.11,89.08,100.3
,,0,2025-11-18T17:50:40.437Z,6.6,-2.83,-4.37,4.06,140.85,46.26,87.89,99.87
,,0,2025-11-18T17:50:40.447Z,6.97,-3.35,-4.26,4.38,138.85,47.73,85.89,98.1
,,0,2025-11-18T17:50:40.457Z,7.06,-3.88,-4.04,4.3,135.46,47.79,83.67,95.21
,,0,2025-11-18T17:50:40.467Z,7.04,-4.25,-3.42,4.45,133.92,41.17,83.2,96.53
,,0,2025-11-18T17:50:40.477Z,6.94,-4.54,-2.78,4.46,131.74,33.06,81.07,98.44
,,0,2025-11-18T17:50:40.487Z,6.98,-4.74,-2.67,4.36,127.47,21.14,78.87,97.89
,,0,2025-11-18T17:50:40.497Z,6.87,-4.79,-2.51,4.24,127.25,5.66,79.09,99.52
,,0,2025-11-18T17:50:40.507Z,6.94,-5.13,-2.26,4.09,128.79,-4.44,76.63,103.41
,,0,2025-11-18T17:50:40.517Z,6.73,-5.18,-1.83,3.89,127.02,-15.37,75.69,100.84
,,0,2025-11-18T17:50:40.527Z,6.97,-5.62,-1.54,3.83,129.09,-24.98,75.31,101.82
,,0,2025-11-18T17:50:40.537Z,7.4,-6.17,-1.54,3.78,126.54,-26.98,70.03,101.88
,,0,2025-11-18T17:50:40.547Z,7.39,-6.08,-2.14,3.61,120.18,-23.13,62.63,99.93
,,0,2025-11-18T17:50:40.557Z,6.98,-5.58,-2.67,3.23,119.94,-19.81,64.23,99.34
,,0,2025-11-18T17:50:40.567Z,6.79,-5.48,-2.41,3.19,117.54,-9.18,64.39,97.91
,,0,2025-11-18T17:50:40.577Z,6.65,-5.5,-1.73,3.3,117.74,-4.83,64.85,98.15
,,0,2025-11-18T17:50:40.587Z,6.32,-5.4,-0.57,3.25,116.77,-2.78,62.61,98.53
,,0,2025-11-18T17:50:40.597Z,6.02,-5.17,-0.41,3.05,111.67,4.16,59.16,94.62
,,0,2025-11-18T17:50:40.607Z,5.89,-5.08,-1.27,2.7,103.96,14.47,54.96,87.05
,,0,2025-11-18T17:50:40.617Z,6.03,-5.26,-2.23,1.93,97.72,27.37,53.5,77.05
,,0,2025-11-18T17:50:40.627Z,5.81,-5.27,-1.88,1.57,93.74,39.57,51.63,67.5
,,0,2025-11-18T17:50:40.879Z,7.22,-0.27,-6.95,1.93,227.61,-58.66,-16.86,-219.27
,,0,2025-11-18T17:50:40.887Z,7.64,-0.23,-7.46,1.63,233.23,-62.66,-12.73,-224.3
,,0,2025-11-18T17:50:40.897Z,7.91,-0.32,-7.82,1.18,236.15,-64.74,-10.08,-226.88
,,0,2025-11-18T17:50:40.907Z,8.42,-0.12,-8.37,0.93,234.96,-63.26,-9.6,-226.08
,,0,2025-11-18T17:50:40.917Z,9.43,0.22,-9.39,0.81,238.41,-61.63,-9.24,-230.12
,,0,2025-11-18T17:50:40.927Z,10.52,0.68,-10.46,0.84,240.22,-60.94,-6.15,-232.28
,,0,2025-11-18T17:50:40.937Z,11.07,1.33,-10.95,0.94,237.56,-63.79,-1.33,-228.83
,,0,2025-11-18T17:50:40.947Z,11.25,1.81,-11.06,0.99,235.94,-69.63,4.56,-225.38
,,0,2025-11-18T17:50:40.957Z,11.32,1.86,-11.13,0.87,237.7,-74.21,11.83,-225.5
,,0,2025-11-18T17:50:40.967Z,11.51,1.95,-11.3,1,236.55,-74.79,16.72,-223.79
,,0,2025-11-18T17:50:40.977Z,11.79,2.28,-11.52,1.03,235.07,-74.34,20.34,-222.08
,,0,2025-11-18T17:50:40.987Z,12.19,2.67,-11.85,1.08,236.3,-73.6,26.32,-223
,,0,2025-11-18T17:50:40.997Z,12.25,2.68,-11.93,0.77,238.44,-70.97,32.5,-225.3
,,0,2025-11-18T17:50:41.007Z,12.5,2.81,-12.14,0.99,241.39,-61.06,35.35,-230.85
,,0,2025-11-18T17:50:41.017Z,12.92,2.82,-12.58,0.84,245.26,-49.34,35.37,-237.63
,,0,2025-11-18T17:50:41.027Z,13.28,3.41,-12.83,0.56,246.6,-37.56,39.5,-240.5
,,0,2025-11-18T17:50:41.037Z,14,3.98,-13.4,0.74,247.8,-26.06,44.76,-242.33
,,0,2025-11-18T17:50:41.047Z,14.41,4.48,-13.65,1.05,243.08,-21.94,46.87,-237.51
,,0,2025-11-18T17:50:41.057Z,14.74,5.42,-13.66,1.04,237.2,-23.15,52.21,-230.22
,,0,2025-11-18T17:50:41.067Z,14.47,6.18,-13.01,1.32,229.87,-33.11,62.33,-218.76
,,0,2025-11-18T17:50:41.077Z,14.13,6.4,-12.54,1.2,230.47,-50.32,71.27,-213.32
,,0,2025-11-18T17:50:41.087Z,14.14,6.5,-12.55,0.57,240.86,-75.08,82.27,-213.56
,,0,2025-11-18T17:50:41.097Z,13.99,6.33,-12.47,-0.32,248.43,-96.31,92.41,-209.53
,,0,2025-11-18T17:50:41.107Z,14.26,5.99,-12.88,-1.31,253.72,-112.38,97.47,-205.53
,,0,2025-11-18T17:50:41.117Z,14.69,5.7,-13.43,-1.7,254.32,-111.45,94.34,-208.22
,,0,2025-11-18T17:50:41.127Z,16.04,5.23,-15.12,-1.17,250.11,-96.11,84.57,-214.86
,,0,2025-11-18T17:50:41.137Z,16.73,5.2,-15.89,-0.52,244.57,-80.79,74.08,-218.63
,,0,2025-11-18T17:50:41.147Z,16.07,5.75,-15.01,-0.08,239.72,-55.34,70.92,-222.2
,,0,2025-11-18T17:50:41.157Z,14.87,5.52,-13.8,-0.32,237.56,-40.08,69.82,-223.5
,,0,2025-11-18T17:50:41.167Z,12.9,4.97,-11.85,-1.11,237.79,-32.46,63.8,-226.76
,,0,2025-11-18T17:50:41.177Z,11.89,5.08,-10.71,-0.96,244.01,-26.86,58.11,-235.47
,,0,2025-11-18T17:50:41.187Z,12.32,5.48,-11.03,-0.26,251.26,-28.73,45.82,-245.37
,,0,2025-11-18T17:50:41.197Z,13.45,6.49,-11.78,0.35,254.56,-26.4,39.18,-250.14
,,0,2025-11-18T17:50:41.207Z,14.28,7.37,-12.22,0.57,254.42,-24.4,39.58,-250.14
,,0,2025-11-18T17:50:41.217Z,14.35,8.22,-11.74,0.75,256.3,-34.09,44.24,-250.14
,,0,2025-11-18T17:50:41.227Z,13.8,8.52,-10.84,0.39,259.83,-52.31,47,-250.14
,,0,2025-11-18T17:50:41.237Z,12.88,7.97,-9.98,-1.65,261.81,-63.73,43.73,-250.14
,,0,2025-11-18T17:50:41.247Z,13.65,8.33,-10.71,-1.54,261.05,-63.02,40.1,-250.14
,,0,2025-11-18T17:50:41.257Z,15.12,9.08,-12.09,-0.36,257.25,-54.63,24.97,-250.14
,,0,2025-11-18T17:50:41.267Z,16.98,10.4,-13.41,0.4,253.96,-40.89,15.93,-250.14
,,0,2025-11-18T17:50:41.277Z,17.93,11.46,-13.79,0.3,252.67,-32.74,14.11,-250.14
,,0,2025-11-18T17:50:41.287Z,17.8,12.14,-13.01,0.12,253.7,-38.29,18.11,-250.14
,,0,2025-11-18T17:50:41.297Z,17.19,12.21,-12.1,-0.29,255.75,-49.8,18.89,-250.14
,,0,2025-11-18T17:50:41.307Z,17.38,12.08,-12.48,-0.59,258.62,-63.11,18.21,-250.14
,,0,2025-11-18T17:50:41.317Z,17.68,11.78,-13.11,-1.34,258.91,-65.71,12.26,-250.14
,,0,2025-11-18T17:50:41.327Z,18.36,11.49,-14.24,-1.48,255.94,-52.96,11.48,-250.14
,,0,2025-11-18T17:50:41.337Z,18.97,10.89,-15.48,-1.2,253.95,-42.7,9.94,-250.14
,,0,2025-11-18T17:50:41.347Z,18.6,10.19,-15.56,-0.32,252.95,-37.02,6.85,-250.14
,,0,2025-11-18T17:50:41.357Z,17.65,9.6,-14.81,0.48,251.75,-37.89,2.85,-248.87
,,0,2025-11-18T17:50:41.367Z,16.79,9.41,-13.87,1.01,235.17,-42.56,-0.65,-231.28
,,0,2025-11-18T17:50:41.377Z,15.75,9.55,-12.44,1.43,216.67,-43.19,-5.24,-212.25
,,0,2025-11-18T17:50:41.387Z,15.22,10.4,-11.02,1.49,197.67,-44.92,-5.16,-192.44
,,0,2025-11-18T17:50:41.397Z,15.01,11.69,-9.09,2.49,176.08,-48.89,-3.47,-169.12
,,0,2025-11-18T17:50:41.407Z,14.87,11.51,-9.11,2.4,160.15,-52.58,10.66,-150.89
,,0,2025-11-18T17:50:41.417Z,13.46,10.2,-8.63,1.65,155.07,-63.28,15.47,-140.73
,,0,2025-11-18T17:50:41.427Z,12.49,9.55,-8,0.91,147,-64.38,11.85,-131.62
,,0,2025-11-18T17:50:41.437Z,10.99,8.17,-7.36,0.12,144.84,-68.99,1.92,-127.34
,,0,2025-11-18T17:50:41.447Z,10.12,7.53,-6.68,-1.02,155.37,-73.43,-6.39,-136.78
,,0,2025-11-18T17:50:41.457Z,10.27,7.7,-6.47,-2.11,173.79,-89.5,-15.08,-148.21
,,0,2025-11-18T17:50:41.467Z,9.83,8.42,-4.81,-1.62,187.44,-100.37,-22.29,-156.72
,,0,2025-11-18T17:50:41.477Z,9.59,9.28,-2.4,-0.21,192.14,-89.57,-13.2,-169.47
,,0,2025-11-18T17:50:41.487Z,10.14,9.06,-4.5,0.65,189.77,-80.86,-15.67,-170.96
,,0,2025-11-18T17:50:41.497Z,11.32,9.55,-5.58,2.44,196.93,-49.6,-20.63,-189.46
,,0,2025-11-18T17:50:41.507Z,12.67,11.79,-3.36,3.18,210.38,-6.37,-17.5,-209.56
,,0,2025-11-18T17:50:41.517Z,13,12.43,1.57,3.47,202.68,31.38,-9.78,-199.99
,,0,2025-11-18T17:50:41.527Z,13.06,12,4.33,2.81,166.62,53.04,-5.97,-157.84
,,0,2025-11-18T17:50:41.537Z,12.23,10.08,4.84,-4.94,94.71,30.81,-6.37,-89.34
,,0,2025-11-18T17:50:41.547Z,13.51,12.17,3.31,-4.87,115.72,-96.42,55.51,-31.82
,,0,2025-11-18T17:50:41.557Z,10.29,9.1,-0.82,4.74,238.2,-215.08,39.48,-94.44
,,0,2025-11-18T17:50:41.567Z,17.79,8.7,-14.25,6.13,199.09,-149.09,6.43,-131.79
,,0,2025-11-18T17:50:41.577Z,14.47,10.28,-9.89,2.43,112.77,-19.58,-1.66,-111.05
,,0,2025-11-18T17:50:41.587Z,15.19,14.13,4.44,3.35,117.04,-21.62,39.55,-108.02
,,0,2025-11-18T17:50:41.597Z,13.55,10.98,7.41,2.84,145.08,-83.41,55.15,-105.12
,,0,2025-11-18T17:50:41.607Z,7.92,7.57,-1,2.12,159.63,-121.44,31.35,-98.76
,,0,2025-11-18T17:50:41.617Z,10.99,8.87,-6.06,2.34,131.86,-101.57,7.5,-83.75
,,0,2025-11-18T17:50:41.627Z,14.14,12.61,-6.1,1.88,95.87,-59.81,19.11,-72.44
,,0,2025-11-18T17:50:41.637Z,13.17,12.55,-3.68,1.56,90.09,-41.06,51.01,-61.88
,,0,2025-11-18T17:50:41.647Z,10.44,9.77,-3.52,1.13,89.88,-42.76,51.02,-60.38
,,0,2025-11-18T17:50:41.657Z,9.48,8.64,-3.78,0.92,78.28,-49.24,38.96,-46.75
,,0,2025-11-18T17:50:41.667Z,9.31,8.59,-3.56,0.4,78.22,-64.08,33.37,-29.98
,,0,2025-11-18T17:50:41.677Z,9.73,8.03,-5.48,-0.05,76.99,-70.03,28.35,-14.82
,,0,2025-11-18T17:50:41.687Z,11.01,7.54,-8.01,0.35,58.09,-55.25,15.45,-9.08
,,0,2025-11-18T17:50:41.697Z,11.97,7.72,-9.15,0.39,31.27,-28.21,10.14,-8.89
,,0,2025-11-18T17:50:41.707Z,11.88,7.53,-9.18,0.02,13.94,7.74,0.16,-11.59
,,0,2025-11-18T17:50:41.717Z,11.52,7.87,-8.38,-0.73,43.1,41.27,-2.21,-12.22
,,0,2025-11-18T17:50:41.727Z,10.46,7.8,-6.84,-1.34,59.54,59.08,-6.21,-4.02
,,0,2025-11-18T17:50:41.737Z,9.43,7.74,-5.22,-1.37,57.96,56.65,-7.82,9.41
,,0,2025-11-18T17:50:41.747Z,8.82,7.43,-4.6,-1.23,52.78,43.91,-10.09,27.5
,,0,2025-11-18T17:50:41.757Z,8.92,7.53,-4.71,-0.85,56.08,31.68,-15.07,43.75
,,0,2025-11-18T17:50:41.767Z,9.4,7.91,-4.97,-1.05,66.67,24.72,-18.33,59.15
,,0,2025-11-18T17:50:41.777Z,9.66,8.26,-4.93,-0.93,78.28,22.1,-19.31,72.57
,,0,2025-11-18T17:50:41.787Z,10,8.59,-5.09,-0.56,88.64,21.76,-19.53,83.68
,,0,2025-11-18T17:50:41.797Z,10.17,8.87,-4.96,-0.21,97.57,23.64,-20.74,92.37
,,0,2025-11-18T17:50:41.807Z,10.38,9.02,-5.14,0.2,105.47,29.92,-23.02,98.48
,,0,2025-11-18T17:50:41.817Z,10.73,9.23,-5.48,0.18,116.91,40.31,-26.1,106.6
,,0,2025-11-18T17:50:41.827Z,11.04,10.08,-4.49,0.22,127.65,43.24,-27.99,116.79
,,0,2025-11-18T17:50:41.837Z,11.22,11.02,-2.1,-0.01,135.29,27.14,-24.09,130.33
,,0,2025-11-18T17:50:41.847Z,11.15,11.1,-1.01,-0.3,150.05,8.57,-18.85,148.62
,,0,2025-11-18T17:50:41.857Z,10.81,10.64,-1.88,-0.27,164.38,-6.17,-22.11,162.77
,,0,2025-11-18T17:50:41.867Z,11.33,10.97,-2.8,0.1,176.11,-12.42,-28.62,173.33
,,0,2025-11-18T17:50:41.877Z,12.07,11.73,-2.85,0.34,185.01,-15.33,-32.39,181.51
,,0,2025-11-18T17:50:41.887Z,12.71,12.29,-3.15,0.6,192.92,-13.82,-33.51,189.48
,,0,2025-11-18T17:50:41.897Z,13.34,12.45,-4.69,1.08,196.15,4.63,-37.92,192.39
,,0,2025-11-18T17:50:41.907Z,14.44,13.09,-5.94,1.42,198.25,33.34,-46.23,189.89
,,0,2025-11-18T17:50:41.917Z,15.18,15,-2.29,0.18,195.69,25.75,-46.18,188.41
,,0,2025-11-18T17:50:41.927Z,15.35,15.33,0.41,-0.68,201.79,23.36,-28.68,198.37
,,0,2025-11-18T17:50:41.937Z,14.32,14.3,-0.36,-0.74,202.8,17.51,-18.13,201.23
,,0,2025-11-18T17:50:41.947Z,13.39,13.1,-2.63,0.84,203.44,34.72,-19.63,199.49
,,0,2025-11-18T17:50:41.957Z,13.51,12.05,-5.79,1.89,215.47,84.7,-39.29,194.19
,,0,2025-11-18T17:50:41.967Z,15.23,12.31,-8.91,1.04,243.56,151.61,-56.71,181.98
,,0,2025-11-18T17:50:41.977Z,16.17,13.7,-8.54,-0.88,265.24,203.99,-49.53,162.14
,,0,2025-11-18T17:50:41.987Z,15.88,14.53,-5.73,-2.88,280.02,245.59,-30.63,130.98
,,0,2025-11-18T17:50:41.997Z,15.63,14.37,-3.96,-4.73,270.44,250.13,-10.19,102.31
,,0,2025-11-18T17:50:42.007Z,15.42,13.86,-1.34,-6.61,266.06,250.13,25.52,87.02
,,0,2025-11-18T17:50:42.017Z,13.65,12,1.65,-6.28,265.73,250.13,47.21,76.27
,,0,2025-11-18T17:50:42.027Z,10.99,9.06,1.81,-5.96,262.85,250.13,51.14,62.51
,,0,2025-11-18T17:50:42.037Z,8.83,7.26,1.36,-4.84,257.86,250.13,47.68,40.69
,,0,2025-11-18T17:50:42.047Z,7.71,6.58,0.91,-3.92,253.27,250.13,37.15,14.12
,,0,2025-11-18T17:50:42.057Z,7.21,7.05,1.03,-1.1,251.11,250.13,14.72,-16.53
,,0,2025-11-18T17:50:42.067Z,8.36,8.35,-0.09,0.33,253.19,250.13,-5.92,-38.81
,,0,2025-11-18T17:50:42.077Z,10.09,9.98,0.16,1.46,257.82,250.13,-7.27,-62.09
,,0,2025-11-18T17:50:42.087Z,13.4,12.82,3.54,1.67,263.5,250.13,-0.92,-82.85
,,0,2025-11-18T17:50:42.097Z,17.3,15.13,7.24,4.26,268.19,250.13,42.31,-87.01
,,0,2025-11-18T17:50:42.107Z,16.66,13.68,7.79,5.45,271.85,250.13,60.87,-87.36
,,0,2025-11-18T17:50:42.117Z,12.24,10.12,4.5,5.21,235.67,206.13,82.37,-79.16
,,0,2025-11-18T17:50:42.127Z,9.89,8.57,1.97,4.51,153.86,124.92,71.55,-54.3
,,0,2025-11-18T17:50:42.137Z,12.74,11.06,3.24,5.44,81.23,15.48,78.41,-14.52
,,0,2025-11-18T17:50:42.147Z,14.4,11.89,5.46,6.03,149.68,-108.2,98.76,30.74
,,0,2025-11-18T17:50:42.157Z,14.4,11.49,5.12,7.01,269.72,-234.83,114.07,67.76
,,0,2025-11-18T17:50:42.167Z,12.34,9.65,2.73,7.19,292.49,-250.14,117.31,96.03
,,0,2025-11-18T17:50:42.177Z,9.15,7.61,-1.71,4.77,293.39,-250.14,91.89,122.75
,,0,2025-11-18T17:50:42.187Z,9.43,7.84,-3.7,3.7,304.68,-250.14,74.44,157.22
,,0,2025-11-18T17:50:42.197Z,10.15,7.49,-5.33,4.3,323.52,-250.14,58.92,196.53
,,0,2025-11-18T17:50:42.207Z,11.4,7.67,-6.46,5.41,322.32,-250.14,57.65,194.94
,,0,2025-11-18T17:50:42.217Z,12.26,7.31,-8.75,4.51,313.38,-250.14,49.24,182.25
,,0,2025-11-18T17:50:42.227Z,12.23,8.79,-8.21,2.18,301.37,-250.14,57.63,157.91
,,0,2025-11-18T17:50:42.237Z,8.57,6.46,-5.59,0.72,272.22,-222.64,65.18,142.43
,,0,2025-11-18T17:50:42.247Z,6.6,3.76,-5.38,0.64,209.96,-164.81,38.79,124.17
,,0,2025-11-18T17:50:42.257Z,8.71,2.91,-8.19,-0.53,143.76,-99.85,-1.02,103.41
,,0,2025-11-18T17:50:42.267Z,13.54,4.15,-12.78,-1.64,98.44,-30.65,-17.02,91.98
,,0,2025-11-18T17:50:42.277Z,14.97,5.54,-13.78,-1.91,104.73,50.61,-23.98,88.5
,,0,2025-11-18T17:50:42.287Z,15.71,5.19,-14.39,-3.56,142.61,109.04,-16,90.51
,,0,2025-11-18T17:50:42.297Z,12.3,4.48,-11,-3.2,141.71,108.98,-23.89,87.37
,,0,2025-11-18T17:50:42.307Z,9.59,5.44,-7.86,-0.74,144.87,90.54,-30.37,108.93
,,0,2025-11-18T17:50:42.317Z,8.49,7.34,-4.21,0.68,156.14,4.59,-13.08,155.52
,,0,2025-11-18T17:50:42.327Z,7.06,6.17,-3.31,-0.93,196.73,-83.04,-4.28,178.29
,,0,2025-11-18T17:50:42.337Z,10.57,5.13,-9.24,-0.11,245.24,-150.13,-2.89,193.89
,,0,2025-11-18T17:50:42.347Z,13.83,4.53,-13.06,0.23,270.47,-179.29,-1.35,202.5
,,0,2025-11-18T17:50:42.357Z,14.82,5.06,-13.84,1.62,254.32,-159.34,-7.1,198.09
,,0,2025-11-18T17:50:42.367Z,22.12,8.13,-19,7.88,199.01,-100.02,-14.12,171.47
,,0,2025-11-18T17:50:42.377Z,21.78,7.63,-19.62,5.58,120.22,19.56,15.32,117.63
,,0,2025-11-18T17:50:42.387Z,19.78,6.7,-18.02,4.69,159.78,146.63,11.13,62.51
,,0,2025-11-18T17:50:42.397Z,14.03,5.56,-12.31,3.78,228.62,220.78,23.06,54.72
,,0,2025-11-18T17:50:42.407Z,9.99,3.24,-8.87,3.24,247.63,240.21,10.36,59.25
,,0,2025-11-18T17:50:42.417Z,8.42,2.38,-7.7,2.45,235.25,229.31,-25.48,45.98
,,0,2025-11-18T17:50:42.427Z,7.87,4.01,-6.61,1.44,237.08,230.73,-46.41,28.6
,,0,2025-11-18T17:50:42.437Z,7.82,5.68,-5.37,-0.05,244.86,239.65,-47.54,16.27
,,0,2025-11-18T17:50:42.447Z,8.04,7.16,-3.6,-0.6,232.43,229.88,-32.38,11.56
,,0,2025-11-18T17:50:42.457Z,7.98,7.17,-3.37,-0.94,209.01,208.24,-12.24,13.02
,,0,2025-11-18T17:50:42.467Z,6.54,5.46,-3.54,-0.72,186.37,185.82,-11.03,9.12
,,0,2025-11-18T17:50:42.477Z,5.86,4.84,-3.31,-0.09,167.55,167.27,-9.19,3.18
,,0,2025-11-18T17:50:42.487Z,5.9,4.79,-3.38,0.62,150.82,150.6,-8.18,-0.05
,,0,2025-11-18T17:50:42.497Z,6.4,5.86,-2.19,1.37,135.96,135.95,-1.31,0.26
,,0,2025-11-18T17:50:42.507Z,7.13,6.64,-0.84,2.47,111.7,111.33,-1.93,8.85
,,0,2025-11-18T17:50:42.517Z,8.78,7.64,1.41,4.1,78.14,77.23,7.55,9.18
,,0,2025-11-18T17:50:42.527Z,9.12,7.2,2.79,4.85,40.37,38.44,11.48,4.47
,,0,2025-11-18T17:50:42.537Z,8.58,6.75,1.8,4.99,29.31,-21.61,11.19,16.33
,,0,2025-11-18T17:50:42.547Z,7.68,5.96,-0.87,4.77,68.49,-60.86,9.7,29.87
,,0,2025-11-18T17:50:42.557Z,7.59,5.44,-3.66,3.81,56.48,-52.89,5.05,19.15
,,0,2025-11-18T17:50:42.567Z,6.97,5.76,-2.68,2.88,48.89,-48.47,6.31,0.8
,,0,2025-11-18T17:50:42.577Z,7.22,5.9,-1.02,4.03,61.69,-60.6,11.5,-1.05
,,0,2025-11-18T17:50:42.587Z,6.24,5.29,0.13,3.31,76.39,-75.79,8.71,-3.83
,,0,2025-11-18T17:50:42.597Z,5.76,5.34,0.34,2.14,92.76,-92.14,6.51,-8.58
,,0,2025-11-18T17:50:42.607Z,5.94,5.57,-0.71,1.94,95.99,-95.16,0.99,-12.52
,,0,2025-11-18T17:50:42.617Z,6.51,5.92,-1.96,1.87,97.73,-95.39,-4.64,-20.73
,,0,2025-11-18T17:50:42.627Z,7.13,6.26,-2.76,2.02,108.43,-103.79,-11.08,-29.33
,,0,2025-11-18T17:50:42.637Z,7.49,6.11,-4.06,1.48,113.16,-105.98,-19.63,-34.45
,,0,2025-11-18T17:50:42.647Z,7.98,6.02,-5.07,1.3,105.29,-89.37,-27.27,-48.53
,,0,2025-11-18T17:50:42.657Z,7.12,5.96,-3.8,0.89,104.6,-65.18,-34.09,-74.36
,,0,2025-11-18T17:50:42.667Z,5.98,5.71,-1.64,0.73,116.94,-52.78,-41.15,-95.9
,,0,2025-11-18T17:50:42.677Z,5.67,5.55,-0.84,0.8,129.04,-43.5,-56.52,-107.53
,,0,2025-11-18T17:50:42.687Z,6,5.94,-0.63,0.49,142.28,-40.94,-77.06,-112.37
,,0,2025-11-18T17:50:42.697Z,6.96,6.89,-0.81,-0.5,154.39,-45.73,-89.44,-117.24
,,0,2025-11-18T17:50:42.707Z,7.92,7.66,-1.95,0.48,164.76,-46.04,-90.05,-130.06
,,0,2025-11-18T17:50:42.717Z,10.12,8.06,-5.93,1.46,174.46,-15.44,-95.07,-145.46
,,0,2025-11-18T17:50:42.727Z,11.04,7.83,-7.68,1.27,205.07,22.15,-102.98,-175.95
,,0,2025-11-18T17:50:42.737Z,10.43,8.34,-6.19,1.03,229.21,39.4,-108.96,-197.76
,,0,2025-11-18T17:50:42.747Z,10.1,9.03,-4.45,0.74,231.56,36.18,-108.3,-201.45
,,0,2025-11-18T17:50:42.757Z,9.78,9.31,-2.94,0.54,224.63,15.1,-114.12,-192.89
,,0,2025-11-18T17:50:42.767Z,10.16,9.86,-2.43,0.42,221.57,-19.93,-117.41,-186.85
,,0,2025-11-18T17:50:42.777Z,10.41,9.97,-2.99,0.01,232.06,-38.4,-132.24,-186.79
,,0,2025-11-18T17:50:42.787Z,12.07,11.6,-3.31,-0.09,245.92,-57.2,-139.41,-194.34
,,0,2025-11-18T17:50:42.797Z,13.57,12.98,-3.93,0.37,250.04,-73.09,-131.21,-199.9
,,0,2025-11-18T17:50:42.807Z,14.51,13.53,-5.18,0.78,251.27,-83.09,-122.66,-202.95
,,0,2025-11-18T17:50:42.817Z,15.31,14.09,-5.97,0.63,251.8,-97.55,-109.38,-204.76
,,0,2025-11-18T17:50:42.827Z,15.63,14.62,-5.44,1.01,249.42,-111.99,-94.79,-201.69
,,0,2025-11-18T17:50:42.837Z,15.88,14.77,-5.4,2.22,240.93,-112.24,-82.79,-196.45
,,0,2025-11-18T17:50:42.847Z,16.2,14.89,-5.83,2.56,236.92,-105.99,-76.6,-197.56
,,0,2025-11-18T17:50:42.857Z,16.89,15.23,-6.76,2.71,235.78,-99.03,-73.6,-200.92
,,0,2025-11-18T17:50:42.867Z,17.65,15.53,-7.97,2.64,226.09,-81.28,-69.98,-199.02
,,0,2025-11-18T17:50:42.877Z,17.61,14.98,-8.98,2.27,216.15,-57.52,-63.38,-198.48
,,0,2025-11-18T17:50:43.16Z,11.93,10.61,5.15,-1.86,220.37,198.15,-74.58,-61.12
,,0,2025-11-18T17:50:43.168Z,12.54,11.44,4.8,-1.8,194.74,174.87,-54.27,-66.32
,,0,2025-11-18T17:50:43.178Z,12.66,11.75,4.54,-1.29,180.74,166.11,-35.95,-61.5
,,0,2025-11-18T17:50:43.188Z,10.47,8.69,5.75,-1.05,160.58,153.11,-38.4,-29.46
,,0,2025-11-18T17:50:43.198Z,10.81,10.03,3.9,-1.03,132.64,118.76,-26.86,-52.62
,,0,2025-11-18T17:50:43.208Z,9.21,8.38,3.7,-0.91,114.27,105.18,-25.56,-36.63
,,0,2025-11-18T17:50:43.218Z,8.94,8.16,3.61,-0.62,104.29,95.08,-34.13,-25.88
,,0,2025-11-18T17:50:43.228Z,9.77,8.98,3.82,-0.47,93.97,83.31,-38.76,-19.66
,,0,2025-11-18T17:50:43.238Z,10.75,9.94,4.01,-0.84,79.92,68.55,-33.05,-24.39
,,0,2025-11-18T17:50:43.248Z,10.77,9.79,4.4,-0.86,60.78,51.63,-21.49,-23.81
,,0,2025-11-18T17:50:43.258Z,9.88,9.07,3.88,-0.52,47.61,40.23,-14.73,-20.77
,,0,2025-11-18T17:50:43.268Z,9.78,9.31,2.87,-0.9,49.43,36.97,-16.76,-28.2
,,0,2025-11-18T17:50:43.278Z,10.19,9.8,2.2,-1.72,51.15,40.33,-5.24,-31.03
,,0,2025-11-18T17:50:43.288Z,9.42,8.71,3.3,-1.47,45.66,36.59,1.33,-27.28
,,0,2025-11-18T17:50:43.298Z,10.16,9.05,4.49,-1.11,35.03,21.58,0.71,-27.59
,,0,2025-11-18T17:50:43.308Z,10.75,9.19,5.42,-1.31,22.49,-2.7,5.25,-21.7
,,0,2025-11-18T17:50:43.318Z,10.72,9.12,5.4,-1.66,36.06,-30.73,10.83,-15.44
,,0,2025-11-18T17:50:43.328Z,10.08,8.84,4.52,-1.76,59.96,-56.98,16.6,-8.52
,,0,2025-11-18T17:50:43.338Z,9.28,8.89,2.28,-1.4,64.28,-60.51,20.89,-5.77
,,0,2025-11-18T17:50:43.348Z,9.6,9.32,-0.42,-2.26,50.85,-44.15,21.12,-13.79
,,0,2025-11-18T17:50:43.358Z,9.57,9.25,0.86,-2.27,45.1,-29.23,28.44,-19.24
,,0,2025-11-18T17:50:43.368Z,9.78,9.14,2.79,-2.11,46.04,-29.5,31.33,-16.37
,,0,2025-11-18T17:50:43.378Z,10.1,9.1,3.67,-2.37,55.04,-38.79,36.91,-12.72
,,0,2025-11-18T17:50:43.388Z,10.33,9.06,4.22,-2.62,68.91,-53.27,41.62,-13.34
,,0,2025-11-18T17:50:43.398Z,10.41,9.47,3.22,-2.88,88.2,-68.58,54.08,-12.27
,,0,2025-11-18T17:50:43.408Z,9.55,8.6,3.07,-2.8,101.66,-82.9,58.85,-0.21
,,0,2025-11-18T17:50:43.418Z,9.82,8.81,3.82,-2.06,115.18,-100.2,56.27,7.79
,,0,2025-11-18T17:50:43.428Z,9.6,9.27,1.26,-2.17,110.22,-89.41,63.74,9.5
,,0,2025-11-18T17:50:43.438Z,9.54,9.16,0.54,-2.61,100.72,-72.63,69.22,8.84
,,0,2025-11-18T17:50:43.448Z,9.71,9.1,2.06,-2.7,98.86,-67.09,72.49,4.21
,,0,2025-11-18T17:50:43.458Z,10.1,9.32,2.77,-2.72,106.91,-72.46,78.6,1.18
,,0,2025-11-18T17:50:43.468Z,10.24,9.18,3.54,-2.83,118.85,-83.77,84.16,4.89
,,0,2025-11-18T17:50:43.478Z,10.1,8.49,4.56,-3.03,136.08,-104.18,86.45,13.89
,,0,2025-11-18T17:50:43.488Z,9.99,8.37,4.35,-3.29,157.51,-131.55,83.95,21.38
,,0,2025-11-18T17:50:43.498Z,10.14,8.59,4.18,-3.38,180.91,-156.58,84.73,32.12
,,0,2025-11-18T17:50:43.508Z,9.44,8.52,2.77,-2.99,183.91,-155.66,88.3,42.35
,,0,2025-11-18T17:50:43.518Z,9.21,8.43,1.66,-3.33,181.05,-152.01,86.59,46.65
,,0,2025-11-18T17:50:43.528Z,9.07,8.21,1.24,-3.66,172.63,-142.61,84.68,47.89
,,0,2025-11-18T17:50:43.538Z,9.16,8.21,0.77,-3.99,166.15,-135.73,81.84,49.86
,,0,2025-11-18T17:50:43.548Z,9.25,8.27,2.12,-3.56,163.77,-134.2,77.15,53.48
,,0,2025-11-18T17:50:43.558Z,9.8,8.37,3.97,-3.22,177.21,-149.62,73.51,60.11
,,0,2025-11-18T17:50:43.568Z,10.42,8.39,5.32,-3.15,206.46,-180.71,72.65,68.5
,,0,2025-11-18T17:50:43.578Z,10.41,8.45,5.15,-3.25,238.93,-213.24,74.54,77.85
,,0,2025-11-18T17:50:43.588Z,9.59,8.28,3.63,-3.21,262.28,-234.11,77.11,89.63
,,0,2025-11-18T17:50:43.598Z,9.16,8.18,2.75,-3.06,272.14,-242.78,74.37,97.92
,,0,2025-11-18T17:50:43.608Z,8.83,8.1,2.47,-2.52,274.31,-243.86,73.2,102.08
,,0,2025-11-18T17:50:43.618Z,8.68,8.02,2.12,-2.53,272.49,-240.6,71.09,106.33
,,0,2025-11-18T17:50:43.628Z,8.7,8.11,2.02,-2.42,269.65,-237.54,65.95,109.26
,,0,2025-11-18T17:50:43.638Z,8.93,8.36,1.98,-2.44,272.73,-240.18,62.84,112.9
,,0,2025-11-18T17:50:43.648Z,9.1,8.86,0.63,-2,276.27,-241.32,61.37,119.67
,,0,2025-11-18T17:50:43.658Z,8.96,8.84,0.39,-1.39,280.95,-243.94,56.75,127.31
,,0,2025-11-18T17:50:43.668Z,9.18,8.94,2.01,-0.57,290.71,-250.14,52.02,138.71
,,0,2025-11-18T17:50:43.678Z,9.12,8.76,2.53,-0.16,296.36,-250.14,50.44,150.73
,,0,2025-11-18T17:50:43.688Z,9.03,8.82,1.92,-0.21,301.2,-250.14,44.35,161.82
,,0,2025-11-18T17:50:43.698Z,9.27,9.2,1.08,0.29,306.33,-250.14,38.94,172.5
,,0,2025-11-18T17:50:43.708Z,9.79,9.75,0.04,0.88,311.25,-250.14,32.49,182.35
,,0,2025-11-18T17:50:43.718Z,10.16,10.04,-0.33,1.51,315.75,-250.14,30.04,190.33
,,0,2025-11-18T17:50:43.728Z,10.39,10.15,-0.82,2.05,317.63,-250.14,25.2,194.12
,,0,2025-11-18T17:50:43.738Z,10.22,9.89,-1.54,2.07,315.65,-250.14,14.33,191.99
,,0,2025-11-18T17:50:43.748Z,10.42,9.95,-2.2,2.18,312.2,-249.59,3.99,187.51
,,0,2025-11-18T17:50:43.758Z,11.12,10.52,-2.4,2.7,289.39,-224.98,1.41,182.02
,,0,2025-11-18T17:50:43.768Z,11.26,10.72,-1.79,2.94,277.42,-213.92,2.23,176.63
,,0,2025-11-18T17:50:43.778Z,10.45,10.12,-1.26,2.31,263.05,-201.66,1.6,168.89
,,0,2025-11-18T17:50:43.788Z,10.09,9.61,-2.46,1.82,254.55,-192.53,1.4,166.51
,,0,2025-11-18T17:50:43.798Z,10.14,8.62,-5.16,1.34,242.37,-175.73,-5.34,166.82
,,0,2025-11-18T17:50:43.808Z,12.29,8.38,-8.91,1.2,227.89,-154.32,-3.74,167.64
,,0,2025-11-18T17:50:43.818Z,13.97,7.61,-11.7,0.41,204.26,-122.89,-18.66,162.08
,,0,2025-11-18T17:50:43.828Z,16.41,9.05,-13.68,0.25,171.84,-89.61,-28.36,143.85
,,0,2025-11-18T17:50:43.838Z,17.6,11.25,-13.44,1.62,113.68,-15.23,-16.35,111.47
,,0,2025-11-18T17:50:43.848Z,15.38,11.14,-10.37,2.19,92.13,53.8,6.91,74.47
,,0,2025-11-18T17:50:43.858Z,11.55,10.2,-5.27,1.3,81.58,72.14,13.3,35.7
,,0,2025-11-18T17:50:43.868Z,9.79,7.68,-5.9,1.43,100.93,99.61,1.35,16.21
,,0,2025-11-18T17:50:43.878Z,9.18,7.29,-5.31,1.72,116.54,115.82,-12.14,4.66
,,0,2025-11-18T17:50:43.888Z,8.85,8.71,-0.25,1.58,103.03,102.6,-8.62,3.92
,,0,2025-11-18T17:50:43.898Z,8.8,8.64,1.47,0.8,70.61,68.77,3.21,15.67
,,0,2025-11-18T17:50:43.908Z,7.02,6.97,-0.34,0.72,33.89,28.87,1.08,17.71
,,0,2025-11-18T17:50:43.918Z,6.42,6.39,-0.64,0.02,18.28,-13.55,-3.46,11.77
,,0,2025-11-18T17:50:43.928Z,7.72,7.65,-0.3,0.96,73.24,-70.1,7.08,19.98
,,0,2025-11-18T17:50:43.938Z,7.7,5.88,-4.89,0.91,84.88,-76.2,3.61,37.21
,,0,2025-11-18T17:50:43.948Z,9.51,5.33,-7.87,0.17,95.39,-82.8,-10.05,46.29
,,0,2025-11-18T17:50:43.958Z,9.45,7.18,-6.15,-0.09,74.68,-59.35,-18.06,41.57
,,0,2025-11-18T17:50:43.968Z,9.16,8,-4.33,-0.98,41.65,-17.02,-26.21,27.53
,,0,2025-11-18T17:50:43.978Z,9.74,9.11,-2.59,-2.26,22.2,-7.27,-15.24,14.42
,,0,2025-11-18T17:50:43.988Z,9.03,8.37,-0.41,-3.38,15.23,-10.89,-7.04,7.98
,,0,2025-11-18T17:50:43.998Z,9.21,7.85,2.87,-3.87,29.93,-29.86,-0.71,1.82
,,0,2025-11-18T17:50:44.008Z,8.78,7.66,3.73,-2.09,48.22,-46.6,-6.27,10.73
,,0,2025-11-18T17:50:44.018Z,7.99,7.96,-0.68,0.29,57.03,-44.5,-16.12,31.82
,,0,2025-11-18T17:50:44.028Z,11.85,8.54,-7.43,3.51,59.84,-24.5,-29.88,45.69
,,0,2025-11-18T17:50:44.038Z,17.27,10.54,-12.21,6.18,47.08,11.88,-24.43,38.46
,,0,2025-11-18T17:50:44.048Z,16.83,12.36,-10.15,5.24,35.45,27.51,-1.57,22.3
,,0,2025-11-18T17:50:44.058Z,12.86,12.23,-2.4,3.17,25.72,7.05,21.91,11.49
,,0,2025-11-18T17:50:44.068Z,9.13,8.68,2.83,0.19,34.67,-31.92,13.13,-3.21
,,0,2025-11-18T17:50:44.078Z,4.88,4.74,-0.32,-1.09,59.22,-54.6,-14,-18.18
,,0,2025-11-18T17:50:44.088Z,7.24,3.79,-6.1,-0.94,68.93,-43.18,-46.68,-26.6
,,0,2025-11-18T17:50:44.098Z,9.99,5.86,-8.07,-0.57,68.01,-8.21,-62.65,-25.18
,,0,2025-11-18T17:50:44.108Z,10.7,8.11,-6.98,0.09,72.28,17.6,-67.63,-18.47
,,0,2025-11-18T17:50:44.118Z,10.41,8.84,-5.48,0.4,73.92,21.82,-66.55,-23.66
,,0,2025-11-18T17:50:44.128Z,11.08,9.78,-5.17,0.61,76.76,25.08,-62.15,-37.44
,,0,2025-11-18T17:50:44.138Z,11.2,9.35,-6.14,0.44,73.69,23.46,-53.21,-45.25
,,0,2025-11-18T17:50:44.148Z,10.46,8.07,-6.65,0.18,72.41,25.31,-49.95,-45.9
,,0,2025-11-18T17:50:44.158Z,10.49,7.93,-6.85,0.49,71.34,28.34,-51.72,-40.14
,,0,2025-11-18T17:50:44.168Z,10.69,8.07,-7,0.46,58.65,18.6,-48.06,-27.99
,,0,2025-11-18T17:50:44.178Z,10.91,8.01,-7.4,0.17,51.36,3.92,-47.23,-19.8
,,0,2025-11-18T17:50:44.188Z,11.35,8.03,-8.01,0.42,49.04,-1.92,-46.43,-15.66
,,0,2025-11-18T17:50:44.198Z,12.07,7.78,-9.14,1.24,43.77,-3.66,-42.79,-8.49
,,0,2025-11-18T17:50:44.208Z,12.76,7.59,-10.01,2.21,43.98,-5.82,-43.58,-0.93
,,0,2025-11-18T17:50:44.218Z,12.83,7.39,-10.11,2.79,43.03,-5.43,-42.31,5.63
,,0,2025-11-18T17:50:44.228Z,13.27,7.1,-10.8,2.98,44.11,2.05,-43.08,9.25
,,0,2025-11-18T17:50:44.238Z,14.33,7.43,-11.83,3.2,42.72,4.28,-39.09,16.69
,,0,2025-11-18T17:50:44.248Z,14.93,7.5,-12.39,3.6,46.66,7.79,-39.79,23.08
,,0,2025-11-18T17:50:44.258Z,15.62,7.63,-13.11,3.73,49.11,12.79,-40.68,24.35
,,0,2025-11-18T17:50:44.268Z,16.34,7.52,-14.12,3.34,53.59,25.42,-40.18,24.72
,,0,2025-11-18T17:50:44.278Z,15.95,8.12,-13.3,3.39,60.62,35.05,-35.96,33.96
,,0,2025-11-18T17:50:44.288Z,14.86,7.69,-12.27,3.32,64.08,33.67,-30.76,45.02
,,0,2025-11-18T17:50:44.298Z,14.7,6.49,-12.89,2.78,69.71,29.81,-35.86,51.82
,,0,2025-11-18T17:50:44.308Z,15.17,6.15,-13.7,2.18,83.38,41.21,-47.96,54.35
,,0,2025-11-18T17:50:44.318Z,15.18,6.48,-13.63,1.66,95.95,57.85,-48.93,58.86
,,0,2025-11-18T17:50:44.328Z,14.91,6.87,-13.11,1.78,107.7,72.12,-43.79,66.92
,,0,2025-11-18T17:50:44.338Z,14.95,6.96,-13.07,2.06,119.68,79.76,-40.79,79.36
,,0,2025-11-18T17:50:44.348Z,14.15,7.04,-12.21,1.29,131.54,95.05,-42.46,80.41
,,0,2025-11-18T17:50:44.358Z,15.09,8.25,-12.57,1.29,147.12,113.73,-27.69,89.12
,,0,2025-11-18T17:50:44.368Z,14.88,7.67,-12.73,0.77,147.16,113.51,-14.49,92.53
,,0,2025-11-18T17:50:44.378Z,14.67,7,-12.89,0.01,145.01,112.43,-11.69,90.83
,,0,2025-11-18T17:50:44.388Z,14.08,7.93,-11.62,-0.65,149.62,119.55,-4.57,89.85
,,0,2025-11-18T17:50:44.398Z,13.25,7.62,-10.73,-1.5,147.74,111.3,1.62,97.15
,,0,2025-11-18T17:50:44.408Z,12.02,7.8,-8.85,-2.3,136.78,106.96,-0.08,85.25
,,0,2025-11-18T17:50:44.418Z,11.54,8.15,-7.47,-3.31,131.46,106.62,-0.08,76.9
,,0,2025-11-18T17:50:44.428Z,11.34,8.32,-6.83,-3.58,132.54,108.54,2.98,76.01
,,0,2025-11-18T17:50:44.438Z,11.58,8.08,-7.21,-4.12,128.89,102.82,3.86,77.62
,,0,2025-11-18T17:50:44.448Z,11.22,8.41,-6.14,-4.19,122.93,95.89,1.29,76.92
,,0,2025-11-18T17:50:44.458Z,11.02,8.95,-5.25,-3.71,118.69,92.99,8.47,73.26
,,0,2025-11-18T17:50:44.468Z,10.36,8.84,-4.92,-2.27,123.7,96.56,6.74,77.03
,,0,2025-11-18T17:50:44.478Z,10.5,9.62,-4.19,-0.5,126.73,98.98,11.17,78.35
,,0,2025-11-18T17:50:44.488Z,10.33,9.93,-2.84,0.2,122.94,84.19,24.69,86.12
,,0,2025-11-18T17:50:44.498Z,9.59,9.26,-2.48,0.27,119.33,68.61,33.76,91.6
,,0,2025-11-18T17:50:44.508Z,10.25,8.55,-5.63,0.55,115.34,62.35,41.12,87.89
,,0,2025-11-18T17:50:44.518Z,11.51,7.22,-8.89,-1.17,113.79,72.6,44.05,75.74
,,0,2025-11-18T17:50:44.528Z,10.8,7.46,-6.92,-3.61,112.17,80.28,44.88,64.21
,,0,2025-11-18T17:50:44.538Z,9.59,8.1,-2.08,-4.68,105.38,73.01,51.21,56.15
,,0,2025-11-18T17:50:44.548Z,8.9,7.47,-1,-4.73,94.68,61.08,50.92,51.4
,,0,2025-11-18T17:50:44.558Z,8.35,7.41,-2.08,-3.24,90.09,68.56,43.07,39.49
,,0,2025-11-18T17:50:44.568Z,8.25,6.65,-3.75,-3.13,99.15,87.92,35.12,29.44
,,0,2025-11-18T17:50:44.578Z,9.4,8.12,-4.36,-1.83,94.41,81.63,35.3,31.7
,,0,2025-11-18T17:50:44.588Z,9.44,8.65,-3.6,-1.19,82.82,64.57,46.88,22.18
,,0,2025-11-18T17:50:44.598Z,8.37,7.61,-3.49,-0.13,74.59,52.53,52.83,3.44
,,0,2025-11-18T17:50:44.608Z,7.91,6.68,-4.23,-0.33,77,54.39,54.18,-5.92
,,0,2025-11-18T17:50:44.618Z,7.36,7.15,-1.71,0.29,71.55,40.06,56.76,-17.11
,,0,2025-11-18T17:50:44.628Z,7.41,7.28,-0.92,1.01,79.98,36.47,63.98,-31.18
,,0,2025-11-18T17:50:44.638Z,7.91,7.79,-1.27,0.58,79.86,22.29,67.54,-36.31
,,0,2025-11-18T17:50:44.648Z,8.08,7.99,-0.94,-0.77,71.49,4.07,63.17,-33.22
,,0,2025-11-18T17:50:44.658Z,8.22,7.72,-1.48,-2.38,66.69,-4.9,56.31,-35.4
,,0,2025-11-18T17:50:44.668Z,8.31,7.23,-2.51,-3.25,66.45,-4.34,48.62,-45.08
,,0,2025-11-18T17:50:44.678Z,7.93,6.43,-3.38,-3.18,68.88,4.14,36.7,-58.14
,,0,2025-11-18T17:50:44.688Z,7.56,6.11,-3.87,-2.22,82.78,21.03,24.71,-76.16
,,0,2025-11-18T17:50:44.698Z,7.45,6.39,-3.6,-1.3,104.08,41.67,13.26,-94.45
,,0,2025-11-18T17:50:44.708Z,7.51,6.86,-3,-0.51,123.02,58.73,4.32,-108.01
,,0,2025-11-18T17:50:44.718Z,7.57,7.11,-2.6,-0.22,133.21,64.82,-3.05,-116.33
,,0,2025-11-18T17:50:44.728Z,7.86,7.37,-2.74,0.23,132.51,58.15,-11.17,-118.54
,,0,2025-11-18T17:50:44.738Z,8.65,7.81,-3.67,0.58,127.14,46.34,-19.03,-116.85
,,0,2025-11-18T17:50:44.748Z,9.36,8.18,-4.48,0.77,124.03,36.63,-25.28,-115.77
,,0,2025-11-18T17:50:44.758Z,9.6,8.09,-5.09,0.89,123.69,31.6,-30.18,-115.72
,,0,2025-11-18T17:50:44.768Z,9.83,7.87,-5.76,1.29,130.31,32.18,-34.86,-121.37
,,0,2025-11-18T17:50:44.778Z,10.01,7.85,-5.99,1.63,140.5,38.68,-43.19,-127.98
,,0,2025-11-18T17:50:44.788Z,9.62,7.96,-5.19,1.49,148.3,43.48,-48.76,-133.13
,,0,2025-11-18T17:50:44.798Z,8.78,7.96,-3.53,1.08,149.65,41.55,-51.7,-134.15
,,0,2025-11-18T17:50:44.808Z,8.63,7.91,-3.32,0.94,149.89,36.14,-52.94,-135.5
,,0,2025-11-18T17:50:44.818Z,9.36,8.09,-4.65,0.76,151.28,32.26,-54.08,-137.55
,,0,2025-11-18T17:50:44.828Z,10.63,8.24,-6.68,0.71,153.67,36.31,-52.16,-139.92
,,0,2025-11-18T17:50:44.838Z,11.2,8.4,-7.32,1.05,153.95,42.07,-52.82,-138.34
,,0,2025-11-18T17:50:44.848Z,10.63,8.62,-6.08,1.24,156.29,45.52,-51.14,-140.5
,,0,2025-11-18T17:50:44.858Z,10.31,8.9,-4.82,1.97,153.42,43.66,-47.66,-139.14
,,0,2025-11-18T17:50:44.868Z,10.96,8.87,-5.52,3.3,144.47,43.8,-45.1,-130.08
,,0,2025-11-18T17:50:44.878Z,12.29,9.02,-7.25,4.14,140.59,48.98,-46.79,-123.19
,,0,2025-11-18T17:50:44.888Z,13.25,9.65,-7.95,4.37,135.27,51.85,-47.6,-115.51
,,0,2025-11-18T17:50:44.898Z,14.6,10.91,-8.24,5.1,120.03,46.4,-32.17,-105.92
,,0,2025-11-18T17:50:44.908Z,12.67,10.33,-6.28,3.78,106.28,34.64,-23.17,-97.77
,,0,2025-11-18T17:50:44.918Z,11.5,9.62,-5.41,3.23,90.01,14.37,-12.23,-88.01
,,0,2025-11-18T17:50:44.928Z,10.96,8.79,-5.66,3.28,76.3,-3.34,-7.63,-75.84
,,0,2025-11-18T17:50:44.938Z,11.33,8.41,-6.54,3.87,63.84,-14.66,-9.46,-61.41
,,0,2025-11-18T17:50:44.948Z,12.27,9.02,-6.95,4.57,57.6,-26.76,-11.56,-49.68
,,0,2025-11-18T17:50:44.958Z,13.27,9.78,-7.31,5.19,57.23,-37.92,-6.32,-42.39
,,0,2025-11-18T17:50:44.968Z,13.75,9.92,-7.77,5.48,59.53,-46.85,0.68,-36.71
,,0,2025-11-18T17:50:44.978Z,13.25,9.66,-7.78,4.68,68.51,-58.43,5.61,-35.33
,,0,2025-11-18T17:50:44.988Z,13.38,8.66,-8.87,5.03,67.38,-62.86,9.85,-22.16
,,0,2025-11-18T17:50:44.998Z,13.46,9.91,-8.1,4.13,78.35,-69.77,11.11,-33.87
,,0,2025-11-18T17:50:45.008Z,12.78,9.02,-8.13,4,72.1,-64.43,18.55,-26.53
,,0,2025-11-18T17:50:45.018Z,12.35,8.41,-7.74,4.68,56.74,-53.05,15.7,-12.57
,,0,2025-11-18T17:50:45.028Z,11.4,8.26,-6.3,4.7,56.82,-52.08,15.73,-16.41
,,0,2025-11-18T17:50:45.038Z,10.96,8.35,-5.59,4.36,66.23,-62.9,17.71,-10.76
,,0,2025-11-18T17:50:45.048Z,10.84,8.36,-5.49,4.17,78.58,-76.62,17.44,-0.11
,,0,2025-11-18T17:50:45.058Z,10.77,8.43,-5.78,3.39,98.81,-96.95,17.73,7.05
,,0,2025-11-18T17:50:45.068Z,11.34,8.36,-6.55,3.98,111.8,-107.79,21.01,20.96
,,0,2025-11-18T17:50:45.078Z,13.91,7.85,-10.57,4.47,77.94,-73.4,13.32,22.56
,,0,2025-11-18T17:50:45.088Z,14.38,8.71,-10.98,3.25,24.48,-23.45,-1.09,6.94
,,0,2025-11-18T17:50:45.098Z,11.83,10.57,-4.9,2.05,15.04,-9.44,11.51,-2.16
,,0,2025-11-18T17:50:45.108Z,10.28,9.92,-1.66,2.09,44.18,-34.84,26.4,6.45
,,0,2025-11-18T17:50:45.118Z,8.81,8.15,-2.44,2.29,71.51,-65.27,25.45,14.34
,,0,2025-11-18T17:50:45.128Z,9.03,7.8,-3.76,2.57,89.02,-85.01,14.68,21.98
,,0,2025-11-18T17:50:45.138Z,10.26,8.76,-4.81,2.33,99.87,-96.46,8.6,24.4
,,0,2025-11-18T17:50:45.148Z,11.74,10.09,-5.62,2.14,106.58,-102.11,14.13,27.05
,,0,2025-11-18T17:50:45.158Z,12.51,10.63,-6.26,2.11,107.05,-99.18,23.02,33.08
,,0,2025-11-18T17:50:45.318Z,3.94,2.84,2.04,1.81,47.89,39.53,-16.62,21.31
,,0,2025-11-18T17:50:45.327Z,7.62,6.97,-2.01,2.32,36.25,23.16,-22.89,-15.94
,,0,2025-11-18T17:50:45.337Z,11.2,8.06,-5.73,5.27,44.29,37.18,-9.21,-22.24
,,0,2025-11-18T17:50:45.347Z,11.99,5.93,-10.3,1.55,129.98,121.68,-19.31,-41.41
,,0,2025-11-18T17:50:45.357Z,16.98,6.24,-15.77,0.89,234.72,223.95,-36.73,-59.93
,,0,2025-11-18T17:50:45.367Z,14.55,5.4,-13.45,-1.31,266.78,250.13,6.79,-92.51
,,0,2025-11-18T17:50:45.377Z,8.34,6.98,4.54,0.34,277.47,250.13,2.7,-120.08
,,0,2025-11-18T17:50:45.387Z,16.93,10.29,13.44,0.17,136.22,122.27,25.23,-54.49
,,0,2025-11-18T17:50:45.397Z,17.52,10.38,12.74,6.07,52.44,-13.59,48.92,13.13
,,0,2025-11-18T17:50:45.407Z,12.61,8.91,0.85,8.89,72.34,-50.69,47.92,19.16
,,0,2025-11-18T17:50:45.417Z,15.2,12.06,-4.96,7.81,86.64,-74.5,43.59,7.55
,,0,2025-11-18T17:50:45.427Z,11.41,9.39,-6.48,-0.34,95.77,-70.23,65.11,0
,,0,2025-11-18T17:50:45.437Z,8.86,4.33,-6.99,-3.3,69.22,-39.15,55.69,-12.53
,,0,2025-11-18T17:50:45.447Z,7.1,3.06,-6.35,0.8,25.34,-10.84,22.89,0.76
,,0,2025-11-18T17:50:45.457Z,8.65,6.27,-3.95,4.46,18.41,7.13,0.02,16.97
,,0,2025-11-18T17:50:45.467Z,12.04,10.24,-2.57,5.77,16.77,5.69,-1.11,15.73
,,0,2025-11-18T17:50:45.477Z,13.42,11.43,-2.38,6.62,7.06,3.03,6.13,1.75
,,0,2025-11-18T17:50:45.487Z,10.79,8.58,-1.63,6.34,5.4,2.8,-3.89,2.47
,,0,2025-11-18T17:50:45.497Z,10.35,9.01,-0.15,5.09,23.79,-13.85,-4.06,-18.91
,,0,2025-11-18T17:50:45.507Z,8.99,7.44,-2.82,4.19,10.51,-4.69,-9.37,-0.7
,,0,2025-11-18T17:50:45.517Z,9.54,7.33,-4.68,3.91,31.18,15.14,-23.82,13.27
,,0,2025-11-18T17:50:45.527Z,10.65,9.34,-3.7,3.55,36.65,26.66,-24.69,4.79
,,0,2025-11-18T17:50:45.537Z,10.93,10.01,-2.03,3.89,35.69,30.41,-17.42,-6.73
,,0,2025-11-18T17:50:45.547Z,10.61,9.4,-1.6,4.65,29.94,24.88,-12.56,-10.95
,,0,2025-11-18T17:50:45.557Z,11.05,9.39,-2.36,5.33,31.07,27.66,-11.33,-8.47
,,0,2025-11-18T17:50:45.567Z,11.05,9.57,-2.44,4.95,33.34,30.65,-9,-9.56
,,0,2025-11-18T17:50:45.577Z,10.99,9.56,-1.8,5.12,35.56,31.93,-5.91,-14.48
,,0,2025-11-18T17:50:45.587Z,10.36,8.93,-2.07,4.84,35.87,29.86,-5.26,-19.17
,,0,2025-11-18T17:50:45.597Z,10.29,8.68,-2.49,4.93,35.92,29.37,-6.74,-19.56
,,0,2025-11-18T17:50:45.607Z,10.44,8.46,-2.83,5.43,40.36,32.95,-11.47,-20.3
,,0,2025-11-18T17:50:45.617Z,10.37,8.53,-3.15,4.99,47.76,35.85,-14.15,-28.21
,,0,2025-11-18T17:50:45.627Z,8.81,6.9,-2.92,4.63,52.55,41.48,-29.75,-12.5
,,0,2025-11-18T17:50:45.637Z,8.95,7.59,-2.63,3.94,58.1,34.81,-40.2,-23.41
,,0,2025-11-18T17:50:45.647Z,8.55,7.26,-3.56,2.78,61.93,32.56,-48.04,-21.62
,,0,2025-11-18T17:50:45.657Z,8.72,7.54,-4.01,1.71,67.23,36.2,-53.59,-18.38
,,0,2025-11-18T17:50:45.667Z,9.1,8.12,-3.79,1.58,67.41,39.09,-51.08,-20.18
,,0,2025-11-18T17:50:45.677Z,9.96,9.29,-3.03,1.88,55.9,31.48,-38.46,-25.58
,,0,2025-11-18T17:50:45.687Z,10.57,9.87,-2.74,2.59,46.38,31.53,-25.7,-22.29
,,0,2025-11-18T17:50:45.697Z,9.58,8.7,-2.59,3.07,40.89,33.73,-18.94,-13.24
,,0,2025-11-18T17:50:45.707Z,9.9,8.7,-2.45,4.05,39.51,32.57,-21.85,-4.72
,,0,2025-11-18T17:50:45.717Z,10.32,8.99,-3,4.08,41.74,33.21,-22.48,-11.6
,,0,2025-11-18T17:50:45.727Z,10.24,8.88,-3.5,3.7,31.66,26.34,-12.15,-12.69
,,0,2025-11-18T17:50:45.737Z,10.79,8.26,-4.5,5.29,31.23,30.38,-7.08,1.5
,,0,2025-11-18T17:50:45.747Z,14.1,8.93,-7.43,7.99,83.79,82.82,-6.71,-10.76
,,0,2025-11-18T17:50:45.757Z,13.95,8.62,-8.85,6.49,147.41,143.05,-8.14,-34.61
,,0,2025-11-18T17:50:45.767Z,10.48,8.29,-4.4,4.67,175.74,170.1,-11.24,-42.7
,,0,2025-11-18T17:50:45.777Z,9.07,7.62,-3.22,3.72,170.14,166.85,-10.16,-31.68
,,0,2025-11-18T17:50:45.787Z,9.09,6.42,-5.53,3.3,180.57,177.71,-17.59,-26.76
,,0,2025-11-18T17:50:45.797Z,8.44,6.57,-5.04,1.62,187.09,180.69,-31.65,-36.76
,,0,2025-11-18T17:50:45.807Z,8.36,8.03,-1.88,1.38,179.34,172.19,-34.98,-35.89
,,0,2025-11-18T17:50:45.817Z,9.1,8.64,0.86,2.7,169.4,166.02,-20.79,-26.5
,,0,2025-11-18T17:50:45.827Z,11.1,10.05,2.62,3.91,152.59,150.1,-15.92,-22.37
,,0,2025-11-18T17:50:45.837Z,10.76,9.82,1.27,4.21,147,145.79,-4.89,-18.11
,,0,2025-11-18T17:50:45.847Z,9.6,8.81,-0.48,3.79,145.56,144.78,-1.98,-14.89
,,0,2025-11-18T17:50:45.857Z,9.62,8.65,0,4.22,140.75,140.41,-4.32,-8.73
,,0,2025-11-18T17:50:45.867Z,9.78,8.81,-0.19,4.23,134.81,134.64,-6.59,-1.66
,,0,2025-11-18T17:50:45.877Z,11.41,9.55,-1.83,5.96,138.38,138.08,-8.47,-3.38
,,0,2025-11-18T17:50:45.887Z,9.85,9.49,-0.26,2.62,128.23,127.2,-7.59,-14.36
,,0,2025-11-18T17:50:45.897Z,10.22,9.51,2.92,2.32,132.32,130.21,-3.6,-23.3
,,0,2025-11-18T17:50:45.907Z,10.1,9.3,2.81,2.75,124.9,122.36,2.45,-24.94
,,0,2025-11-18T17:50:45.917Z,9.77,9.07,-1.23,3.43,128.45,126.81,0.62,-20.43
,,0,2025-11-18T17:50:45.927Z,10.1,9.33,-1.65,3.49,134.32,133.08,0.08,-18.21
,,0,2025-11-18T17:50:45.937Z,10,9.4,2.04,2.72,131.94,129.91,0.58,-23.08
,,0,2025-11-18T17:50:45.947Z,10.31,9.08,4.55,1.75,111.17,107.57,2.89,-27.91
,,0,2025-11-18T17:50:45.957Z,10.25,8.88,4.68,2.07,75.59,72.93,2.67,-19.68
,,0,2025-11-18T17:50:45.967Z,9.52,8.8,2.8,2.34,39.75,39.54,-1.21,-3.85
,,0,2025-11-18T17:50:45.977Z,9.49,9.17,1.56,1.89,19.2,16.05,-7.69,7.2
,,0,2025-11-18T17:50:45.987Z,10.19,9.97,0.93,1.91,3.52,2.04,-2.28,-1.75
,,0,2025-11-18T17:50:45.997Z,9.93,9.55,0.8,2.59,1.99,1.83,0.56,-0.53
,,0,2025-11-18T17:50:46.007Z,10.3,9.65,2.04,2.97,4.22,-2.09,-3.62,0.55
,,0,2025-11-18T17:50:46.017Z,11.71,10.87,3.37,2.74,20.23,-18.69,3.45,-6.95
,,0,2025-11-18T17:50:46.027Z,11.34,10.43,3.83,2.24,47.25,-44.94,14.49,-1.79
,,0,2025-11-18T17:50:46.037Z,10.51,9.55,3.89,2.04,74.01,-72.08,15.41,6.68
,,0,2025-11-18T17:50:46.047Z,9.93,9.35,2.64,2.04,91.3,-89.53,13.3,11.93
,,0,2025-11-18T17:50:46.057Z,9.85,9.48,1.41,2.27,101.65,-100.11,10.79,13.9
,,0,2025-11-18T17:50:46.067Z,10.09,9.61,1.43,2.69,107.96,-106.43,9.16,15.63
,,0,2025-11-18T17:50:46.077Z,9.86,9.31,1.46,2.88,108.72,-107.29,4.64,16.96
,,0,2025-11-18T17:50:46.087Z,9.36,8.84,0.69,2.99,100.58,-99.68,-4.61,12.62
,,0,2025-11-18T17:50:46.097Z,8.85,8.4,-0.3,2.78,85.7,-83.63,-18.48,3.24
,,0,2025-11-18T17:50:46.107Z,8.99,8.66,-0.21,2.42,75.85,-69.96,-28.97,-4.4
,,0,2025-11-18T17:50:46.117Z,8.92,8.72,-0.16,1.87,64.81,-53.99,-34.79,-8.63
,,0,2025-11-18T17:50:46.127Z,8.62,8.39,-0.59,1.88,56.32,-33.85,-42.85,-13.79
,,0,2025-11-18T17:50:46.137Z,8.13,7.78,-0.93,2.15,63.69,-13.22,-56.3,-26.69
,,0,2025-11-18T17:50:46.147Z,8.55,8.04,-1.3,2.57,80.63,7.78,-71.05,-37.31
,,0,2025-11-18T17:50:46.157Z,9.11,8.34,-1.63,3.29,95.55,25.03,-82.35,-41.48
,,0,2025-11-18T17:50:46.167Z,9.63,8.81,-1,3.75,104.3,30.28,-89.61,-43.95
,,0,2025-11-18T17:50:46.177Z,9.25,8.35,-0.45,3.96,102.79,25.38,-93.11,-35.37
,,0,2025-11-18T17:50:46.187Z,8.96,8.3,-1.21,3.16,104.59,17.31,-97.03,-34.98
,,0,2025-11-18T17:50:46.197Z,8.69,8.13,-2.51,1.79,105,11.67,-94.63,-43.98
,,0,2025-11-18T17:50:46.207Z,9.09,8.16,-3.7,1.55,100.03,8.08,-86.19,-50.11
,,0,2025-11-18T17:50:46.217Z,8.66,7.83,-3.48,1.24,90.81,1.13,-78.5,-45.64
,,0,2025-11-18T17:50:46.227Z,7.61,7.38,-0.77,1.66,89.54,-10,-79.89,-39.18
,,0,2025-11-18T17:50:46.237Z,8.57,7.84,2.42,2.5,94.59,-32.56,-82.46,-32.98
,,0,2025-11-18T17:50:46.247Z,9.72,8.56,3.42,3.08,105.35,-64.6,-79.02,-26.13
,,0,2025-11-18T17:50:46.257Z,9.52,8.73,2.18,3.1,123.55,-96.86,-74.55,-17.99
,,0,2025-11-18T17:50:46.267Z,9.69,9.11,0.77,3.23,142.83,-122.94,-71.64,-12.46
,,0,2025-11-18T17:50:46.277Z,10.54,9.9,-0.86,3.51,147.1,-132.56,-63.23,-8.37
,,0,2025-11-18T17:50:46.287Z,10.62,10.08,-0.85,3.24,154.88,-146,-51.5,-4.4
,,0,2025-11-18T17:50:46.297Z,10.4,9.71,-0.5,3.68,165.71,-160.05,-42.69,-4.54
,,0,2025-11-18T17:50:46.307Z,10.27,9.62,-0.79,3.53,165.3,-161.02,-37.01,-5.28
,,0,2025-11-18T17:50:46.317Z,10.43,9.73,-0.83,3.66,163.46,-157.95,-34.87,-23.53
,,0,2025-11-18T17:50:46.327Z,9.97,9.11,-2.03,3.49,154.45,-148.82,-31.51,-26.73
,,0,2025-11-18T17:50:46.337Z,10.03,8.84,-2.67,3.92,133.3,-126.95,-32.63,-24.24
,,0,2025-11-18T17:50:46.347Z,9.49,8.03,-3.3,3.85,106.87,-96.37,-41.12,-21.02
,,0,2025-11-18T17:50:46.357Z,9.41,8.01,-3.02,3.92,90.35,-68.08,-52.54,-27.69
,,0,2025-11-18T17:50:46.367Z,9.77,8.8,-1.81,3.83,85.46,-53.84,-56.85,-34.23
,,0,2025-11-18T17:50:46.377Z,10.08,9.49,-0.61,3.35,84.29,-55.41,-54.52,-32.6
,,0,2025-11-18T17:50:46.387Z,10.08,9.5,-0.36,3.36,75.82,-51.5,-50.64,-23.04
,,0,2025-11-18T17:50:46.397Z,10.02,9.43,-1.11,3.21,71.63,-44.3,-53.81,-16.53
,,0,2025-11-18T17:50:46.407Z,10.35,9.48,-3.11,2.73,68.58,-37.81,-54.63,-17.02
,,0,2025-11-18T17:50:46.417Z,11.06,9.22,-5.76,2,61.99,-12.56,-58.3,-16.94
,,0,2025-11-18T17:50:46.427Z,11.49,9.1,-6.85,1.55,70.07,20.26,-65.34,-15.14
,,0,2025-11-18T17:50:46.437Z,11.2,9.4,-5.79,1.9,88.22,50.99,-70.98,-11.99
,,0,2025-11-18T17:50:46.447Z,10.71,9.78,-3.92,1.94,99.96,67.22,-73.44,-8.86
,,0,2025-11-18T17:50:46.457Z,10.58,10.09,-2.63,1.78,102.79,72.97,-72.28,-4.02
,,0,2025-11-18T17:50:46.467Z,10.63,10.27,-2.06,1.77,101.8,74.22,-69.45,5.56
,,0,2025-11-18T17:50:46.477Z,10.99,10.79,-1.08,1.79,83.95,55.61,-60.27,17.95
,,0,2025-11-18T17:50:46.487Z,11.12,10.86,-1.32,1.98,62.28,23.44,-45.81,35.08
,,0,2025-11-18T17:50:46.497Z,10.93,10.28,-3.36,1.62,66.7,-5.99,-38.37,54.23
,,0,2025-11-18T17:50:46.507Z,11.15,9.93,-4.92,1.2,84.41,-32.56,-33.13,70.48
,,0,2025-11-18T17:50:46.517Z,11.13,9.28,-6.06,1.05,97.11,-42.8,-34.95,79.86
,,0,2025-11-18T17:50:46.527Z,11.77,9.52,-6.87,0.81,101.5,-42.36,-36.98,84.5
,,0,2025-11-18T17:50:46.537Z,12.03,9.91,-6.81,0.5,101.43,-39.56,-31.32,87.99
,,0,2025-11-18T17:50:46.547Z,12.09,10.25,-6.39,0.49,102.48,-38.77,-22.44,92.17
,,0,2025-11-18T17:50:46.557Z,11.95,10.56,-5.52,0.85,116.94,-58.34,-7.02,101.1
,,0,2025-11-18T17:50:46.567Z,12.36,10.04,-6.99,1.76,123.47,-51.23,-4.56,112.25
,,0,2025-11-18T17:50:46.577Z,13.07,9.1,-9.28,1.38,121.29,-37.63,-4.63,115.21
,,0,2025-11-18T17:50:46.587Z,12.65,9.31,-8.45,1.42,113.92,-28.99,-6.73,109.96
,,0,2025-11-18T17:50:46.597Z,11.61,9.44,-6.66,1.1,105.24,-14.58,-8.95,103.84
,,0,2025-11-18T17:50:46.607Z,11.35,9.37,-6.31,1.13,96.72,2.09,-16.37,95.3
,,0,2025-11-18T17:50:46.617Z,12.27,9.43,-7.77,1.11,91.93,36.55,-25.82,80.31
,,0,2025-11-18T17:50:46.627Z,13.69,9.89,-9.44,0.7,99.63,72.34,-22.36,64.76
,,0,2025-11-18T17:50:46.637Z,13.64,9.74,-9.54,0.48,120.07,103.92,-20.43,56.56
,,0,2025-11-18T17:50:46.647Z,12.71,9.69,-8.23,0.33,138.85,126.4,-21.11,53.45
,,0,2025-11-18T17:50:46.657Z,12.17,9.75,-7.27,0.38,148.82,137.88,-23.2,50.97
,,0,2025-11-18T17:50:46.667Z,12.79,10.3,-7.58,0.21,152.01,140.6,-23.98,52.56
,,0,2025-11-18T17:50:46.677Z,13.02,10.9,-7.1,-0.31,132,114.31,-15.92,64.08
,,0,2025-11-18T17:50:46.687Z,12.42,11.11,-5.48,-0.91,107.63,71.59,-6.76,80.09
,,0,2025-11-18T17:50:46.697Z,11.61,10.51,-4,-2.89,104.09,29.14,0.02,99.93
,,0,2025-11-18T17:50:46.707Z,11.43,9.53,-4.18,-4.73,101.75,-13.74,6.89,100.58
,,0,2025-11-18T17:50:46.717Z,11.23,9.6,-4.22,-4.02,121.4,-60.21,2.5,105.39
,,0,2025-11-18T17:50:46.727Z,11.43,10.78,-3.04,-2.3,146.58,-90.95,-4.18,114.88
,,0,2025-11-18T17:50:46.737Z,12.5,12.11,-2.97,-0.87,160.35,-101.84,-5.78,123.73
,,0,2025-11-18T17:50:46.747Z,13.2,12.1,-5.12,-1.33,161.14,-96.12,-1.41,129.32
