#group,FALSE,FALSE,FALSE,FALSE,FALSE,FALSE,FALSE,FALSE,FALSE,FALSE,FALSE
#datatype,string,long,dateTime:RFC3339,double,double,double,double,double,double,double,double
#default,_result,,,,,,,,,,
,result,table,_time,Amag,Ax,Ay,Az,Gmag,Gx,Gy,Gz
,,0,2025-11-18T17:46:34.75Z,9.77,9.45,-2.47,-0.31,4.99,-3.11,1.66,-3.52
,,0,2025-11-18T17:46:34.797Z,9.79,9.44,-2.61,-0.17,6.21,-4.86,1.63,-3.5
,,0,2025-11-18T17:46:34.806Z,9.81,9.43,-2.67,-0.24,6.42,-4.79,1.93,-3.82
,,0,2025-11-18T17:46:34.816Z,9.8,9.41,-2.72,-0.29,5.94,-4.1,1.95,-3.83
,,0,2025-11-18T17:46:34.826Z,9.78,9.4,-2.68,-0.32,5.59,-3.31,1.54,-4.23
,,0,2025-11-18T17:46:34.836Z,9.75,9.38,-2.66,-0.2,5.62,-3.1,1.39,-4.47
,,0,2025-11-18T17:46:34.846Z,9.76,9.4,-2.63,-0.28,5.42,-2.92,1.41,-4.34
,,0,2025-11-18T17:46:34.856Z,9.76,9.41,-2.6,-0.23,5.15,-2.98,1.41,-3.95
,,0,2025-11-18T17:46:34.866Z,9.72,9.36,-2.63,-0.23,4.96,-2.91,1.67,-3.65
,,0,2025-11-18T17:46:34.876Z,9.77,9.43,-2.56,-0.23,5.14,-2.6,1.89,-4.01
,,0,2025-11-18T17:46:34.886Z,9.8,9.46,-2.55,-0.22,5.2,-2.53,1.69,-4.22
,,0,2025-11-18T17:46:34.896Z,9.74,9.41,-2.46,-0.31,5.18,-2.94,1.95,-3.79
,,0,2025-11-18T17:46:34.906Z,9.76,9.43,-2.52,-0.25,5.48,-3.01,2.02,-4.11
,,0,2025-11-18T17:46:34.916Z,9.68,9.35,-2.48,-0.32,5.63,-3.23,1.89,-4.21
,,0,2025-11-18T17:46:34.926Z,9.73,9.4,-2.48,-0.29,6.06,-3.53,2.09,-4.45
,,0,2025-11-18T17:46:34.936Z,9.75,9.43,-2.46,-0.34,6.19,-4.09,1.9,-4.24
,,0,2025-11-18T17:46:34.946Z,9.71,9.39,-2.45,-0.28,6.25,-4.31,1.46,-4.28
,,0,2025-11-18T17:46:34.956Z,9.73,9.4,-2.5,-0.3,6.52,-4.79,1.74,-4.08
,,0,2025-11-18T17:46:34.966Z,9.71,9.36,-2.53,-0.35,6.33,-4.6,1.37,-4.14
,,0,2025-11-18T17:46:34.976Z,9.79,9.44,-2.58,-0.29,6.14,-4.5,1.4,-3.95
,,0,2025-11-18T17:46:34.986Z,9.79,9.43,-2.6,-0.34,5.89,-4.03,1.3,-4.1
,,0,2025-11-18T17:46:34.996Z,9.84,9.48,-2.62,-0.27,5.95,-3.71,1.45,-4.42
,,0,2025-11-18T17:46:35.006Z,9.82,9.44,-2.67,-0.32,6.16,-4.3,1.57,-4.13
,,0,2025-11-18T17:46:35.016Z,9.84,9.47,-2.67,-0.25,5.86,-3.57,1.6,-4.36
,,0,2025-11-18T17:46:35.026Z,9.83,9.46,-2.67,-0.29,5.84,-3.4,1.62,-4.47
,,0,2025-11-18T17:46:35.036Z,9.81,9.45,-2.62,-0.22,5.74,-3.73,1.75,-4
,,0,2025-11-18T17:46:35.046Z,9.72,9.39,-2.52,-0.27,6.28,-4.53,1.67,-4.02
,,0,2025-11-18T17:46:35.056Z,9.72,9.37,-2.56,-0.18,6.42,-4.98,1.43,-3.78
,,0,2025-11-18T17:46:35.066Z,9.76,9.41,-2.62,-0.13,6.84,-5.34,1.6,-3.96
,,0,2025-11-18T17:46:35.076Z,9.76,9.39,-2.63,-0.3,6.88,-5.34,1.56,-4.05
,,0,2025-11-18T17:46:35.086Z,9.77,9.41,-2.62,-0.17,6.84,-5.37,1.42,-3.98
,,0,2025-11-18T17:46:35.096Z,9.72,9.36,-2.61,-0.23,6.74,-4.89,1.66,-4.34
,,0,2025-11-18T17:46:35.106Z,9.68,9.3,-2.65,-0.24,6.61,-4.85,1.64,-4.19
,,0,2025-11-18T17:46:35.116Z,9.67,9.31,-2.6,-0.25,6.34,-4.84,1.49,-3.81
,,0,2025-11-18T17:46:35.126Z,9.75,9.4,-2.58,-0.25,6.47,-5.12,1.43,-3.69
,,0,2025-11-18T17:46:35.136Z,9.72,9.33,-2.68,-0.36,6.71,-5.11,1.25,-4.16
,,0,2025-11-18T17:46:35.146Z,9.83,9.42,-2.77,-0.33,6.16,-4.18,1.38,-4.31
,,0,2025-11-18T17:46:35.156Z,9.87,9.49,-2.72,-0.3,6.13,-4.03,1.25,-4.45
,,0,2025-11-18T17:46:35.166Z,9.85,9.47,-2.72,-0.25,6.59,-3.83,1.3,-5.2
,,0,2025-11-18T17:46:35.176Z,9.8,9.41,-2.72,-0.29,6.77,-3.98,0.89,-5.4
,,0,2025-11-18T17:46:35.186Z,9.78,9.4,-2.71,-0.26,6.37,-3.56,0.93,-5.2
,,0,2025-11-18T17:46:35.196Z,9.77,9.4,-2.69,-0.18,6.15,-3.46,0.84,-5.02
,,0,2025-11-18T17:46:35.206Z,9.78,9.4,-2.72,-0.19,6.25,-3.29,1.25,-5.17
,,0,2025-11-18T17:46:35.216Z,9.78,9.4,-2.68,-0.21,6.24,-3.62,1.62,-4.82
,,0,2025-11-18T17:46:35.226Z,9.8,9.45,-2.6,-0.24,6.23,-3.63,1.74,-4.75
,,0,2025-11-18T17:46:35.236Z,9.79,9.43,-2.61,-0.12,6.39,-4.05,1.89,-4.56
,,0,2025-11-18T17:46:35.246Z,9.76,9.41,-2.62,-0.21,6.61,-4.17,2.15,-4.66
,,0,2025-11-18T17:46:35.256Z,9.77,9.41,-2.6,-0.23,6.48,-4.23,2.28,-4.35
,,0,2025-11-18T17:46:35.266Z,9.75,9.39,-2.63,-0.21,6.64,-4.27,2.45,-4.46
,,0,2025-11-18T17:46:35.276Z,9.76,9.4,-2.61,-0.24,6.89,-4.35,2.53,-4.7
,,0,2025-11-18T17:46:35.286Z,9.71,9.35,-2.59,-0.37,6.83,-4.49,2.6,-4.45
,,0,2025-11-18T17:46:35.296Z,9.69,9.32,-2.65,-0.34,6.4,-4.42,2.21,-4.07
,,0,2025-11-18T17:46:35.306Z,9.71,9.34,-2.63,-0.32,6.63,-4.51,2.08,-4.38
,,0,2025-11-18T17:46:35.316Z,9.69,9.3,-2.68,-0.31,5.92,-3.76,1.76,-4.22
,,0,2025-11-18T17:46:35.326Z,9.68,9.3,-2.64,-0.32,5.58,-3.23,1.63,-4.25
,,0,2025-11-18T17:46:35.336Z,9.77,9.39,-2.67,-0.39,5.93,-3.49,1.73,-4.47
,,0,2025-11-18T17:46:35.346Z,9.76,9.38,-2.64,-0.37,6.07,-3.28,1.79,-4.78
,,0,2025-11-18T17:46:35.356Z,9.78,9.4,-2.71,-0.28,6.01,-3.22,1.24,-4.92
,,0,2025-11-18T17:46:35.366Z,9.75,9.36,-2.72,-0.28,5.84,-3.07,1.15,-4.83
,,0,2025-11-18T17:46:35.376Z,9.81,9.4,-2.78,-0.21,5.94,-2.81,1.21,-5.09
,,0,2025-11-18T17:46:35.386Z,9.83,9.43,-2.75,-0.21,5.58,-2.17,1.4,-4.95
,,0,2025-11-18T17:46:35.396Z,9.82,9.42,-2.75,-0.22,5.45,-1.8,1.57,-4.9
,,0,2025-11-18T17:46:35.406Z,9.82,9.42,-2.76,-0.23,5.51,-1.54,1.62,-5.04
,,0,2025-11-18T17:46:35.416Z,9.8,9.41,-2.73,-0.23,5.63,-1.82,1.71,-5.05
,,0,2025-11-18T17:46:35.426Z,9.81,9.44,-2.67,-0.1,5.56,-1.7,1.83,-4.97
,,0,2025-11-18T17:46:35.436Z,9.75,9.39,-2.62,-0.25,5.6,-1.8,2.02,-4.9
,,0,2025-11-18T17:46:35.446Z,9.78,9.41,-2.63,-0.29,5.65,-1.89,1.88,-4.98
,,0,2025-11-18T17:46:35.456Z,9.81,9.43,-2.66,-0.25,5.78,-2.13,1.92,-5.02
,,0,2025-11-18T17:46:35.466Z,9.77,9.41,-2.6,-0.28,5.86,-2.18,2.24,-4.96
,,0,2025-11-18T17:46:35.476Z,9.74,9.38,-2.6,-0.28,5.63,-2.46,2.24,-4.54
,,0,2025-11-18T17:46:35.486Z,9.7,9.34,-2.59,-0.36,6.03,-3.22,1.89,-4.73
,,0,2025-11-18T17:46:35.496Z,9.76,9.39,-2.66,-0.31,5.56,-2.83,1.51,-4.54
,,0,2025-11-18T17:46:35.506Z,9.73,9.34,-2.7,-0.35,5.54,-2.4,1.58,-4.74
,,0,2025-11-18T17:46:35.516Z,9.7,9.33,-2.65,-0.3,5.81,-1.7,1.61,-5.32
,,0,2025-11-18T17:46:35.526Z,9.71,9.33,-2.68,-0.3,5.5,-1.56,1.38,-5.09
,,0,2025-11-18T17:46:35.536Z,9.76,9.36,-2.76,-0.29,5.68,-0.8,1.4,-5.44
,,0,2025-11-18T17:46:35.546Z,9.84,9.43,-2.8,-0.28,5.5,-0.64,1.03,-5.37
,,0,2025-11-18T17:46:35.556Z,9.78,9.39,-2.72,-0.23,5.75,-0.19,1.41,-5.57
,,0,2025-11-18T17:46:35.566Z,9.82,9.41,-2.78,-0.36,6.02,0.05,1.21,-5.9
,,0,2025-11-18T17:46:35.576Z,9.81,9.4,-2.81,-0.19,5.86,0.33,1.11,-5.74
,,0,2025-11-18T17:46:35.586Z,9.81,9.42,-2.73,-0.17,5.85,0.62,1.47,-5.63
,,0,2025-11-18T17:46:35.596Z,9.71,9.34,-2.63,-0.21,5.79,0.53,1.63,-5.53
,,0,2025-11-18T17:46:35.606Z,9.77,9.41,-2.64,-0.12,5.93,0.37,1.28,-5.78
,,0,2025-11-18T17:46:35.616Z,9.77,9.41,-2.64,-0.15,5.62,0.68,1.31,-5.42
,,0,2025-11-18T17:46:35.626Z,9.8,9.46,-2.53,-0.18,5.78,0.89,1.34,-5.55
,,0,2025-11-18T17:46:35.636Z,9.72,9.4,-2.5,-0.2,5.41,0.52,1.23,-5.24
,,0,2025-11-18T17:46:35.646Z,9.71,9.35,-2.59,-0.21,5.45,-0.12,0.73,-5.4
,,0,2025-11-18T17:46:35.656Z,9.7,9.36,-2.55,-0.28,5.89,-0.11,0.63,-5.85
,,0,2025-11-18T17:46:35.666Z,9.63,9.3,-2.46,-0.28,5.49,-0.36,0.87,-5.4
,,0,2025-11-18T17:46:35.676Z,9.65,9.33,-2.48,-0.27,5.44,-1.11,0.47,-5.31
,,0,2025-11-18T17:46:35.686Z,9.75,9.38,-2.63,-0.34,5.53,-0.8,0.33,-5.46
,,0,2025-11-18T17:46:35.696Z,9.77,9.37,-2.74,-0.32,6.2,-0.11,0.4,-6.18
,,0,2025-11-18T17:46:35.706Z,9.76,9.39,-2.66,-0.34,6.23,0.6,0.42,-6.19
,,0,2025-11-18T17:46:35.716Z,9.73,9.34,-2.68,-0.36,6.29,0.88,-0.31,-6.22
,,0,2025-11-18T17:46:35.726Z,9.78,9.37,-2.78,-0.31,6.93,1.5,-1.15,-6.66
,,0,2025-11-18T17:46:35.736Z,9.8,9.37,-2.83,-0.28,7.59,2.66,-1.27,-6.99
,,0,2025-11-18T17:46:35.746Z,9.76,9.36,-2.75,-0.25,7.69,3.12,-1.39,-6.89
,,0,2025-11-18T17:46:35.756Z,9.72,9.36,-2.63,-0.2,7.15,1.89,-1.14,-6.8
,,0,2025-11-18T17:46:35.766Z,9.73,9.36,-2.65,-0.11,6.32,1.24,-1.08,-6.1
,,0,2025-11-18T17:46:35.776Z,9.77,9.4,-2.67,-0.13,6.14,-0.22,-0.78,-6.08
,,0,2025-11-18T17:46:35.786Z,9.8,9.43,-2.66,-0.12,6.13,-0.63,-0.19,-6.09
,,0,2025-11-18T17:46:35.796Z,9.75,9.39,-2.59,-0.18,6.48,-1.56,0.5,-6.27
,,0,2025-11-18T17:46:35.806Z,9.76,9.4,-2.6,-0.19,6.46,-2.37,0.64,-5.98
,,0,2025-11-18T17:46:35.816Z,9.81,9.46,-2.63,-0.12,7.22,-4.42,1.69,-5.45
,,0,2025-11-18T17:46:35.826Z,9.75,9.38,-2.69,0.01,7.89,-4.1,1.55,-6.56
,,0,2025-11-18T17:46:35.836Z,9.87,9.45,-2.84,-0.02,7.92,-3.23,2.43,-6.81
,,0,2025-11-18T17:46:35.846Z,9.68,9.35,-2.51,-0.23,7.49,-3.14,0.69,-6.77
,,0,2025-11-18T17:46:35.856Z,9.66,9.35,-2.43,-0.35,7.03,-0.92,1.72,-6.76
,,0,2025-11-18T17:46:35.866Z,9.99,9.62,-2.67,-0.29,8.51,-0.24,3.13,-7.91
,,0,2025-11-18T17:46:35.876Z,9.9,9.53,-2.65,-0.25,7.63,1.81,2.32,-7.04
,,0,2025-11-18T17:46:35.886Z,9.85,9.48,-2.67,-0.21,7.46,2.69,2.68,-6.43
,,0,2025-11-18T17:46:35.896Z,9.94,9.56,-2.7,-0.3,7.18,2.98,2.4,-6.08
,,0,2025-11-18T17:46:35.906Z,9.95,9.58,-2.67,-0.26,7.31,3.26,2.37,-6.09
,,0,2025-11-18T17:46:35.916Z,9.88,9.51,-2.67,-0.2,7.33,4.02,2.21,-5.72
,,0,2025-11-18T17:46:35.926Z,9.89,9.54,-2.59,-0.22,6.98,3.7,2.07,-5.54
,,0,2025-11-18T17:46:35.936Z,9.83,9.45,-2.7,-0.2,6.63,4.45,1.12,-4.79
,,0,2025-11-18T17:46:35.946Z,9.84,9.47,-2.68,-0.33,8.31,5.48,1.02,-6.17
,,0,2025-11-18T17:46:35.956Z,9.83,9.47,-2.62,-0.29,7.89,6.15,0.79,-4.87
,,0,2025-11-18T17:46:35.966Z,9.72,9.38,-2.53,-0.22,7.49,5.45,0.81,-5.08
,,0,2025-11-18T17:46:35.976Z,9.65,9.31,-2.53,-0.25,6.87,4.76,0.75,-4.9
,,0,2025-11-18T17:46:35.986Z,9.61,9.28,-2.51,-0.26,6.29,3.76,0.7,-5
,,0,2025-11-18T17:46:35.996Z,9.64,9.31,-2.47,-0.31,5.87,2.79,0.89,-5.09
,,0,2025-11-18T17:46:36.006Z,9.64,9.31,-2.49,-0.22,6.24,2.19,1.18,-5.73
,,0,2025-11-18T17:46:36.016Z,9.66,9.31,-2.56,-0.37,6.87,2.05,1.15,-6.46
,,0,2025-11-18T17:46:36.026Z,9.64,9.27,-2.64,-0.29,7.04,2.47,0.72,-6.56
,,0,2025-11-18T17:46:36.036Z,9.73,9.36,-2.65,-0.3,7.52,3.55,0.65,-6.6
,,0,2025-11-18T17:46:36.046Z,9.73,9.35,-2.68,-0.28,7.84,4.07,0.92,-6.64
,,0,2025-11-18T17:46:36.056Z,9.72,9.34,-2.68,-0.33,8.23,4.82,0.63,-6.64
,,0,2025-11-18T17:46:36.066Z,9.77,9.41,-2.6,-0.23,7.63,3.77,0.85,-6.58
,,0,2025-11-18T17:46:36.076Z,9.74,9.4,-2.52,-0.29,6.98,2.75,0.86,-6.36
,,0,2025-11-18T17:46:36.086Z,9.68,9.35,-2.48,-0.21,6.71,1.66,1,-6.42
,,0,2025-11-18T17:46:36.096Z,9.74,9.4,-2.54,-0.15,6.88,1.08,0.61,-6.77
,,0,2025-11-18T17:46:36.106Z,9.71,9.39,-2.47,-0.1,6.9,-0.16,0.67,-6.86
,,0,2025-11-18T17:46:36.116Z,9.7,9.41,-2.37,-0.04,6.84,-1.4,0.92,-6.63
,,0,2025-11-18T17:46:36.126Z,9.68,9.38,-2.38,-0.05,6.97,-2.62,0.98,-6.38
,,0,2025-11-18T17:46:36.136Z,9.68,9.38,-2.39,-0.13,6.97,-3.4,0.82,-6.03
,,0,2025-11-18T17:46:36.146Z,9.71,9.4,-2.44,-0.12,6.91,-4.05,1.06,-5.5
,,0,2025-11-18T17:46:36.156Z,9.81,9.49,-2.5,-0.08,7.45,-4.47,1.05,-5.86
,,0,2025-11-18T17:46:36.166Z,9.79,9.46,-2.55,-0.15,7.93,-4.21,1.23,-6.61
,,0,2025-11-18T17:46:36.176Z,9.76,9.43,-2.52,-0.17,7.81,-4.04,0.9,-6.62
,,0,2025-11-18T17:46:36.186Z,9.71,9.36,-2.57,-0.15,7.81,-4.45,0.85,-6.36
,,0,2025-11-18T17:46:36.196Z,9.68,9.34,-2.55,-0.26,7.14,-3.82,0.59,-6
,,0,2025-11-18T17:46:36.206Z,9.7,9.35,-2.57,-0.21,6.99,-4.11,0.78,-5.6
,,0,2025-11-18T17:46:36.216Z,9.69,9.36,-2.49,-0.3,6.76,-4.09,0.73,-5.33
,,0,2025-11-18T17:46:36.226Z,9.74,9.42,-2.47,-0.26,6.67,-4.19,0.59,-5.16
,,0,2025-11-18T17:46:36.236Z,9.85,9.51,-2.56,-0.28,7.26,-4.99,0.97,-5.18
,,0,2025-11-18T17:46:36.246Z,9.87,9.51,-2.59,-0.35,7.86,-5.47,0.9,-5.58
,,0,2025-11-18T17:46:36.256Z,9.84,9.49,-2.57,-0.32,7.88,-5.51,1.24,-5.5
,,0,2025-11-18T17:46:36.266Z,9.84,9.46,-2.67,-0.4,7.96,-5.66,0.79,-5.55
,,0,2025-11-18T17:46:36.276Z,9.8,9.43,-2.67,-0.28,7.91,-5.44,0.85,-5.68
,,0,2025-11-18T17:46:36.286Z,9.76,9.41,-2.58,-0.21,7.81,-5.28,0.76,-5.7
,,0,2025-11-18T17:46:36.296Z,9.68,9.32,-2.59,-0.22,7.28,-5.21,0.6,-5.05
,,0,2025-11-18T17:46:36.306Z,9.63,9.28,-2.55,-0.19,7.03,-5.02,0.8,-4.86
,,0,2025-11-18T17:46:36.316Z,9.57,9.24,-2.47,-0.19,7.4,-5.45,0.82,-4.93
,,0,2025-11-18T17:46:36.326Z,9.57,9.26,-2.41,-0.09,7.08,-5.01,1.03,-4.9
,,0,2025-11-18T17:46:36.336Z,9.62,9.3,-2.45,-0.16,7.49,-5.46,1.27,-4.97
,,0,2025-11-18T17:46:36.346Z,9.71,9.4,-2.44,-0.2,7.44,-5.98,1.13,-4.28
,,0,2025-11-18T17:46:36.356Z,9.76,9.41,-2.55,-0.27,7.56,-5.91,1.29,-4.53
,,0,2025-11-18T17:46:36.366Z,9.81,9.44,-2.68,-0.18,7.43,-5.52,1.34,-4.79
,,0,2025-11-18T17:46:36.376Z,9.78,9.4,-2.69,-0.2,7.46,-5.44,1.76,-4.79
,,0,2025-11-18T17:46:36.386Z,9.79,9.42,-2.66,-0.21,7.39,-5.65,1.95,-4.35
,,0,2025-11-18T17:46:36.396Z,9.71,9.36,-2.55,-0.19,7.15,-5.88,1.6,-3.73
,,0,2025-11-18T17:46:36.406Z,9.8,9.41,-2.7,-0.32,7.02,-5.53,1.84,-3.9
,,0,2025-11-18T17:46:36.416Z,9.8,9.42,-2.7,-0.17,6.49,-4.82,1.95,-3.88
,,0,2025-11-18T17:46:36.426Z,9.81,9.45,-2.63,-0.17,6.4,-4.45,2.11,-4.08
,,0,2025-11-18T17:46:36.436Z,9.81,9.47,-2.52,-0.24,6.05,-4.21,1.82,-3.95
,,0,2025-11-18T17:46:36.446Z,9.8,9.46,-2.55,-0.29,5.85,-4.27,1.4,-3.75
,,0,2025-11-18T17:46:36.456Z,9.85,9.49,-2.59,-0.27,5.69,-3.44,1.68,-4.21
,,0,2025-11-18T17:46:36.466Z,9.85,9.5,-2.58,-0.28,5.66,-3,1.79,-4.45
,,0,2025-11-18T17:46:36.476Z,9.82,9.48,-2.54,-0.26,5.41,-2.85,1.99,-4.15
,,0,2025-11-18T17:46:36.486Z,9.79,9.45,-2.56,-0.21,5.31,-2.78,1.54,-4.25
,,0,2025-11-18T17:46:36.496Z,9.81,9.46,-2.56,-0.22,5.01,-2.56,1.29,-4.11
,,0,2025-11-18T17:46:36.506Z,9.82,9.49,-2.52,-0.19,5.07,-2.48,1.32,-4.21
,,0,2025-11-18T17:46:36.516Z,9.73,9.41,-2.47,-0.16,5.15,-2.99,1.34,-3.97
,,0,2025-11-18T17:46:36.526Z,9.76,9.44,-2.44,-0.15,5.29,-3.08,1.13,-4.15
,,0,2025-11-18T17:46:36.536Z,9.8,9.49,-2.46,-0.23,5.3,-3.17,1.57,-3.95
,,0,2025-11-18T17:46:36.546Z,9.79,9.47,-2.47,-0.22,5.34,-2.94,1.57,-4.17
,,0,2025-11-18T17:46:36.556Z,9.73,9.4,-2.49,-0.21,5.49,-3.31,1.56,-4.08
,,0,2025-11-18T17:46:36.566Z,9.74,9.42,-2.47,-0.22,6.12,-4.03,1.5,-4.35
,,0,2025-11-18T17:46:36.576Z,9.71,9.4,-2.43,-0.27,6.5,-4.62,1.96,-4.14
,,0,2025-11-18T17:46:36.586Z,9.79,9.46,-2.53,-0.19,6.88,-5.09,2.05,-4.15
,,0,2025-11-18T17:46:36.596Z,9.79,9.44,-2.56,-0.3,6.6,-4.83,1.73,-4.15
,,0,2025-11-18T17:46:36.606Z,9.77,9.41,-2.62,-0.31,6.47,-4.43,1.95,-4.29
,,0,2025-11-18T17:46:36.616Z,9.71,9.37,-2.53,-0.31,6.61,-4.63,1.82,-4.35
,,0,2025-11-18T17:46:36.626Z,9.71,9.37,-2.55,-0.24,6.64,-4.66,1.63,-4.44
,,0,2025-11-18T17:46:36.636Z,9.78,9.41,-2.62,-0.35,6.39,-4.31,1.37,-4.51
,,0,2025-11-18T17:46:36.646Z,9.79,9.43,-2.62,-0.29,6.53,-4.44,1.52,-4.54
,,0,2025-11-18T17:46:36.656Z,9.78,9.42,-2.59,-0.33,6.34,-3.91,1.8,-4.65
,,0,2025-11-18T17:46:36.666Z,9.77,9.42,-2.58,-0.28,6.07,-3.84,1.51,-4.45
,,0,2025-11-18T17:46:36.676Z,9.73,9.38,-2.58,-0.2,6.62,-4.08,1.54,-4.98
,,0,2025-11-18T17:46:36.686Z,9.76,9.4,-2.61,-0.26,6.54,-4.09,1.33,-4.93
,,0,2025-11-18T17:46:36.696Z,9.74,9.39,-2.57,-0.14,6.66,-3.82,1.09,-5.34
,,0,2025-11-18T17:46:36.706Z,9.8,9.46,-2.58,-0.23,6.54,-3.92,1.01,-5.13
,,0,2025-11-18T17:46:36.716Z,9.84,9.49,-2.59,-0.3,6.68,-4.05,1.27,-5.16
,,0,2025-11-18T17:46:36.726Z,9.81,9.45,-2.64,-0.15,6.93,-4.39,1.06,-5.26
,,0,2025-11-18T17:46:36.736Z,9.83,9.47,-2.62,-0.25,6.78,-3.83,0.97,-5.5
,,0,2025-11-18T17:46:36.746Z,9.76,9.41,-2.55,-0.15,6.52,-3.52,1.13,-5.37
,,0,2025-11-18T17:46:36.756Z,9.77,9.44,-2.52,-0.17,6.51,-3.47,0.76,-5.46
,,0,2025-11-18T17:46:36.766Z,9.75,9.41,-2.54,-0.22,6.71,-3.48,1.31,-5.58
,,0,2025-11-18T17:46:36.776Z,9.78,9.44,-2.52,-0.24,6.85,-3.54,1.75,-5.6
,,0,2025-11-18T17:46:36.786Z,9.79,9.45,-2.53,-0.23,6.76,-3.56,1.48,-5.55
,,0,2025-11-18T17:46:36.796Z,9.78,9.43,-2.56,-0.27,7.06,-3.98,1.56,-5.62
,,0,2025-11-18T17:46:36.94Z,9.77,9.41,-2.63,-0.28,5.88,-3.7,1.83,-4.18
,,0,2025-11-18T17:46:36.949Z,9.74,9.36,-2.66,-0.27,5.44,-3.15,1.97,-3.98
,,0,2025-11-18T17:46:36.959Z,9.73,9.35,-2.67,-0.27,5.5,-3.06,1.86,-4.17
,,0,2025-11-18T17:46:36.969Z,9.73,9.36,-2.61,-0.29,5.22,-3.09,1.13,-4.05
,,0,2025-11-18T17:46:36.979Z,9.82,9.46,-2.6,-0.29,5.25,-3,1.26,-4.11
,,0,2025-11-18T17:46:36.989Z,9.83,9.49,-2.57,-0.23,5.54,-2.75,1.67,-4.51
,,0,2025-11-18T17:46:36.999Z,9.79,9.43,-2.62,-0.3,5.23,-2.26,1.24,-4.55
,,0,2025-11-18T17:46:37.009Z,9.82,9.46,-2.63,-0.21,5.13,-2.38,1.59,-4.26
,,0,2025-11-18T17:46:37.019Z,9.8,9.45,-2.61,-0.22,5.3,-2,1.71,-4.6
,,0,2025-11-18T17:46:37.029Z,9.8,9.44,-2.61,-0.2,5.12,-1.38,1.66,-4.64
,,0,2025-11-18T17:46:37.039Z,9.81,9.47,-2.56,-0.19,4.98,-1.61,1.52,-4.47
,,0,2025-11-18T17:46:37.049Z,9.74,9.42,-2.48,-0.16,5.2,-2.27,1.71,-4.35
,,0,2025-11-18T17:46:37.059Z,9.76,9.44,-2.48,-0.25,5.39,-2.72,1.45,-4.43
,,0,2025-11-18T17:46:37.069Z,9.76,9.43,-2.48,-0.23,5.51,-2.82,1.28,-4.56
,,0,2025-11-18T17:46:37.079Z,9.79,9.46,-2.5,-0.18,5.79,-3.08,1.77,-4.57
,,0,2025-11-18T17:46:37.089Z,9.72,9.39,-2.49,-0.15,5.88,-3.24,1.71,-4.6
,,0,2025-11-18T17:46:37.099Z,9.72,9.4,-2.47,-0.27,6.22,-3.67,1.92,-4.64
,,0,2025-11-18T17:46:37.109Z,9.68,9.35,-2.53,-0.23,6.09,-3.76,1.85,-4.42
,,0,2025-11-18T17:46:37.119Z,9.76,9.41,-2.57,-0.28,6.19,-3.87,1.68,-4.53
,,0,2025-11-18T17:46:37.129Z,9.76,9.41,-2.58,-0.26,6.23,-3.93,1.82,-4.48
,,0,2025-11-18T17:46:37.139Z,9.74,9.37,-2.63,-0.35,6.63,-4.31,2.12,-4.56
,,0,2025-11-18T17:46:37.149Z,9.73,9.36,-2.63,-0.3,6.14,-3.56,1.64,-4.72
,,0,2025-11-18T17:46:37.159Z,9.75,9.38,-2.63,-0.32,6.06,-3.22,1.63,-4.86
,,0,2025-11-18T17:46:37.169Z,9.77,9.41,-2.61,-0.34,6.08,-2.73,1.62,-5.18
,,0,2025-11-18T17:46:37.179Z,9.7,9.33,-2.62,-0.3,5.75,-2.56,1.51,-4.92
,,0,2025-11-18T17:46:37.189Z,9.76,9.41,-2.59,-0.24,5.34,-2.51,1.04,-4.6
,,0,2025-11-18T17:46:37.199Z,9.78,9.44,-2.51,-0.25,5.54,-2.54,1.47,-4.69
,,0,2025-11-18T17:46:37.209Z,9.73,9.4,-2.48,-0.21,5.77,-3.11,1.79,-4.51
,,0,2025-11-18T17:46:37.219Z,9.7,9.38,-2.48,-0.3,6.41,-3.89,1.75,-4.79
,,0,2025-11-18T17:46:37.229Z,9.81,9.47,-2.54,-0.23,6.47,-4.26,1.65,-4.58
,,0,2025-11-18T17:46:37.239Z,9.77,9.43,-2.56,-0.26,6.24,-3.76,1.27,-4.81
,,0,2025-11-18T17:46:37.249Z,9.78,9.44,-2.55,-0.2,5.78,-3.27,1.46,-4.54
,,0,2025-11-18T17:46:37.259Z,9.78,9.42,-2.62,-0.21,5.88,-3.4,1.53,-4.54
,,0,2025-11-18T17:46:37.269Z,9.76,9.42,-2.56,-0.18,5.74,-3.45,1.56,-4.31
,,0,2025-11-18T17:46:37.279Z,9.78,9.44,-2.57,-0.17,5.8,-4.08,1.47,-3.85
,,0,2025-11-18T17:46:37.289Z,9.78,9.46,-2.45,-0.28,6.29,-4.68,1.84,-3.78
,,0,2025-11-18T17:46:37.299Z,9.78,9.45,-2.49,-0.27,6.61,-4.99,1.83,-3.93
,,0,2025-11-18T17:46:37.309Z,9.78,9.43,-2.57,-0.28,6.94,-5.05,1.78,-4.43
,,0,2025-11-18T17:46:37.319Z,9.83,9.46,-2.66,-0.29,6.91,-4.46,1.86,-4.95
,,0,2025-11-18T17:46:37.329Z,9.8,9.43,-2.65,-0.28,6.74,-4.34,1.89,-4.79
,,0,2025-11-18T17:46:37.339Z,9.81,9.44,-2.63,-0.29,6.24,-3.87,1.6,-4.62
,,0,2025-11-18T17:46:37.349Z,9.82,9.44,-2.7,-0.31,6.25,-3.74,1.47,-4.79
,,0,2025-11-18T17:46:37.359Z,9.78,9.4,-2.7,-0.17,5.97,-3.08,1.59,-4.86
,,0,2025-11-18T17:46:37.369Z,9.73,9.37,-2.62,-0.25,5.78,-2.55,1.44,-4.98
,,0,2025-11-18T17:46:37.379Z,9.68,9.34,-2.54,-0.18,5.68,-2.72,1.41,-4.78
,,0,2025-11-18T17:46:37.389Z,9.71,9.36,-2.57,-0.17,5.89,-2.95,1.62,-4.83
,,0,2025-11-18T17:46:37.399Z,9.71,9.37,-2.53,-0.21,5.96,-3.21,1.58,-4.77
,,0,2025-11-18T17:46:37.409Z,9.69,9.36,-2.5,-0.18,5.79,-3.42,1.72,-4.34
,,0,2025-11-18T17:46:37.419Z,9.73,9.39,-2.53,-0.26,6.22,-4.35,1.79,-4.07
,,0,2025-11-18T17:46:37.429Z,9.82,9.46,-2.62,-0.21,6.52,-4.8,1.65,-4.08
,,0,2025-11-18T17:46:37.439Z,9.88,9.5,-2.67,-0.25,6.62,-4.56,2.13,-4.29
,,0,2025-11-18T17:46:37.449Z,9.78,9.41,-2.62,-0.32,6.51,-4.5,1.96,-4.28
,,0,2025-11-18T17:46:37.459Z,9.71,9.36,-2.6,-0.25,6.76,-4.76,2.04,-4.35
,,0,2025-11-18T17:46:37.469Z,9.75,9.4,-2.56,-0.3,6.63,-4.97,1.9,-3.95
,,0,2025-11-18T17:46:37.479Z,9.75,9.41,-2.55,-0.29,6.61,-4.94,1.82,-4
,,0,2025-11-18T17:46:37.489Z,9.73,9.37,-2.61,-0.32,6.5,-4.65,1.79,-4.18
,,0,2025-11-18T17:46:37.499Z,9.74,9.39,-2.59,-0.25,6.3,-4.44,1.62,-4.18
,,0,2025-11-18T17:46:37.509Z,9.75,9.4,-2.57,-0.22,6.25,-3.92,1.67,-4.57
,,0,2025-11-18T17:46:37.519Z,9.72,9.36,-2.6,-0.29,6.01,-3.63,1.5,-4.56
,,0,2025-11-18T17:46:37.529Z,9.74,9.37,-2.65,-0.23,6.21,-3.65,1.68,-4.73
,,0,2025-11-18T17:46:37.539Z,9.74,9.38,-2.63,-0.26,5.92,-3.75,1.6,-4.3
,,0,2025-11-18T17:46:37.549Z,9.78,9.41,-2.66,-0.24,6.58,-4.36,1.49,-4.69
,,0,2025-11-18T17:46:37.559Z,9.77,9.4,-2.68,-0.19,6.54,-4.1,1.89,-4.73
,,0,2025-11-18T17:46:37.569Z,9.76,9.39,-2.66,-0.24,6.3,-3.69,2.15,-4.63
,,0,2025-11-18T17:46:37.579Z,9.75,9.37,-2.68,-0.18,5.79,-3.49,1.92,-4.21
,,0,2025-11-18T17:46:37.589Z,9.73,9.37,-2.61,-0.18,6.03,-3.61,1.92,-4.43
,,0,2025-11-18T17:46:37.599Z,9.72,9.38,-2.55,-0.18,6.25,-4.17,1.94,-4.23
,,0,2025-11-18T17:46:37.609Z,9.73,9.38,-2.57,-0.23,6.02,-4.24,1.74,-3.9
,,0,2025-11-18T17:46:37.619Z,9.77,9.42,-2.57,-0.2,6,-4.02,1.85,-4.05
,,0,2025-11-18T17:46:37.629Z,9.78,9.44,-2.56,-0.15,6.59,-4.52,1.95,-4.38
,,0,2025-11-18T17:46:37.639Z,9.69,9.34,-2.56,-0.21,6.32,-4,1.92,-4.5
,,0,2025-11-18T17:46:37.649Z,9.72,9.37,-2.57,-0.32,6.45,-4.32,1.6,-4.52
,,0,2025-11-18T17:46:37.659Z,9.68,9.3,-2.66,-0.34,6.34,-3.96,1.4,-4.75
,,0,2025-11-18T17:46:37.669Z,9.79,9.41,-2.71,-0.37,6.01,-3.56,1.19,-4.69
,,0,2025-11-18T17:46:37.679Z,9.83,9.45,-2.68,-0.3,6,-3.24,1.34,-4.87
,,0,2025-11-18T17:46:37.689Z,9.8,9.41,-2.7,-0.26,5.64,-3.15,1.47,-4.44
,,0,2025-11-18T17:46:37.699Z,9.8,9.42,-2.69,-0.26,5.62,-3,1.39,-4.54
,,0,2025-11-18T17:46:37.709Z,9.91,9.52,-2.72,-0.28,5.67,-3,1.62,-4.53
,,0,2025-11-18T17:46:37.719Z,9.82,9.44,-2.7,-0.17,5.77,-3.02,1.77,-4.6
,,0,2025-11-18T17:46:37.729Z,9.81,9.43,-2.71,-0.19,5.81,-2.92,2.27,-4.48
,,0,2025-11-18T17:46:37.739Z,9.84,9.47,-2.66,-0.28,5.91,-3.02,2.08,-4.63
,,0,2025-11-18T17:46:37.749Z,9.84,9.47,-2.66,-0.2,5.32,-2.82,1.73,-4.17
,,0,2025-11-18T17:46:37.759Z,9.85,9.48,-2.69,-0.18,5.06,-1.8,1.47,-4.5
,,0,2025-11-18T17:46:37.769Z,9.86,9.52,-2.56,-0.22,4.92,-1.64,1.82,-4.26
,,0,2025-11-18T17:46:37.779Z,9.83,9.48,-2.58,-0.29,5.1,-1.35,1.69,-4.62
,,0,2025-11-18T17:46:37.789Z,9.79,9.44,-2.59,-0.2,5.32,-1.5,1.68,-4.82
,,0,2025-11-18T17:46:37.799Z,9.74,9.4,-2.56,-0.2,5.17,-1.17,1.76,-4.72
,,0,2025-11-18T17:46:37.809Z,9.75,9.42,-2.5,-0.24,5.01,-1.54,1.82,-4.41
,,0,2025-11-18T17:46:37.819Z,9.76,9.45,-2.44,-0.19,5.34,-2.31,1.47,-4.59
,,0,2025-11-18T17:46:37.829Z,9.84,9.49,-2.6,-0.26,5.44,-2.2,1.47,-4.76
,,0,2025-11-18T17:46:37.839Z,9.84,9.47,-2.67,-0.19,5.68,-1.29,1.72,-5.26
,,0,2025-11-18T17:46:37.849Z,9.85,9.48,-2.65,-0.27,5.83,-1.32,1.92,-5.34
,,0,2025-11-18T17:46:37.859Z,9.82,9.44,-2.68,-0.18,5.76,-1.63,1.19,-5.4
,,0,2025-11-18T17:46:37.869Z,9.83,9.46,-2.67,-0.29,5.85,-1.52,1.26,-5.5
,,0,2025-11-18T17:46:37.879Z,9.82,9.44,-2.69,-0.29,5.89,-2.77,1.28,-5.04
,,0,2025-11-18T17:46:37.889Z,9.8,9.43,-2.65,-0.22,5.99,-1.81,1.12,-5.6
,,0,2025-11-18T17:46:37.899Z,9.86,9.46,-2.8,-0.12,6.18,-2.05,1.6,-5.61
,,0,2025-11-18T17:46:37.909Z,9.89,9.47,-2.82,-0.14,6.36,-0.85,1.66,-6.08
,,0,2025-11-18T17:46:37.919Z,9.8,9.43,-2.69,-0.15,6.13,-0.37,1.96,-5.79
,,0,2025-11-18T17:46:37.929Z,9.73,9.37,-2.59,-0.12,6.44,-0.92,2.37,-5.92
,,0,2025-11-18T17:46:37.939Z,9.68,9.33,-2.59,-0.19,5.87,-1.36,2.05,-5.34
,,0,2025-11-18T17:46:37.949Z,9.72,9.35,-2.62,-0.28,5.71,-2.02,2.24,-4.84
,,0,2025-11-18T17:46:37.959Z,9.77,9.39,-2.7,-0.24,5.88,-1.67,2.02,-5.26
,,0,2025-11-18T17:46:37.969Z,9.66,9.3,-2.62,-0.23,6.04,-1.37,1.79,-5.6
,,0,2025-11-18T17:46:37.979Z,9.63,9.27,-2.58,-0.26,5.73,-1.01,1.74,-5.37
,,0,2025-11-18T17:46:37.989Z,9.68,9.32,-2.58,-0.27,5.76,-0.91,1.63,-5.45
,,0,2025-11-18T17:46:37.999Z,9.7,9.36,-2.57,-0.22,5.69,-0.47,1.37,-5.5
,,0,2025-11-18T17:46:38.009Z,9.72,9.37,-2.54,-0.22,5.61,-0.76,1.6,-5.32
,,0,2025-11-18T17:46:38.019Z,9.68,9.33,-2.58,-0.24,5.8,-0.62,1.62,-5.53
,,0,2025-11-18T17:46:38.029Z,9.67,9.33,-2.53,-0.29,5.47,-0.6,1.09,-5.33
,,0,2025-11-18T17:46:38.039Z,9.77,9.41,-2.62,-0.22,5.94,-1.37,0.92,-5.7
,,0,2025-11-18T17:46:38.049Z,9.74,9.38,-2.63,-0.2,5.82,-1.36,0.92,-5.59
,,0,2025-11-18T17:46:38.059Z,9.75,9.37,-2.68,-0.28,6.18,-1.94,0.75,-5.82
,,0,2025-11-18T17:46:38.069Z,9.76,9.39,-2.68,-0.19,6.17,-1.32,0.92,-5.95
,,0,2025-11-18T17:46:38.079Z,9.78,9.4,-2.69,-0.14,5.48,-0.92,0.53,-5.37
,,0,2025-11-18T17:46:38.089Z,9.77,9.4,-2.66,-0.19,5.36,-0.43,0.6,-5.31
,,0,2025-11-18T17:46:38.099Z,9.8,9.43,-2.68,-0.09,5.69,-0.1,0.87,-5.63
,,0,2025-11-18T17:46:38.109Z,9.76,9.4,-2.63,-0.07,5.47,-0.25,0.8,-5.4
,,0,2025-11-18T17:46:38.119Z,9.78,9.42,-2.6,-0.1,5.37,-0.31,1.51,-5.15
,,0,2025-11-18T17:46:38.129Z,9.83,9.48,-2.6,-0.06,5.4,-0.32,1.07,-5.28
,,0,2025-11-18T17:46:38.139Z,9.84,9.5,-2.57,-0.18,5.61,-0.54,1.27,-5.44
,,0,2025-11-18T17:46:38.149Z,9.81,9.46,-2.6,-0.17,5.91,-0.46,1.6,-5.67
,,0,2025-11-18T17:46:38.159Z,9.82,9.45,-2.66,-0.18,5.78,-0.33,1.69,-5.52
,,0,2025-11-18T17:46:38.169Z,9.84,9.49,-2.61,-0.19,5.94,-0.47,1.53,-5.72
,,0,2025-11-18T17:46:38.179Z,9.81,9.44,-2.66,-0.18,5.88,-0.18,1.89,-5.56
,,0,2025-11-18T17:46:38.189Z,9.73,9.38,-2.58,-0.15,5.76,-0.28,1.5,-5.55
,,0,2025-11-18T17:46:38.199Z,9.74,9.39,-2.56,-0.24,5.72,-0.18,1.47,-5.52
,,0,2025-11-18T17:46:38.209Z,9.81,9.47,-2.55,-0.26,5.49,-0.15,1.4,-5.31
,,0,2025-11-18T17:46:38.219Z,9.9,9.56,-2.55,-0.22,5.4,-0.55,1.18,-5.24
,,0,2025-11-18T17:46:38.229Z,9.93,9.6,-2.53,-0.29,5.66,-1.06,1.05,-5.46
,,0,2025-11-18T17:46:38.239Z,10.13,9.79,-2.58,-0.2,5.7,-1.89,1.47,-5.17
,,0,2025-11-18T17:46:38.249Z,10.2,9.89,-2.47,-0.24,6.11,-2.66,1.81,-5.19
,,0,2025-11-18T17:46:38.259Z,10.27,9.99,-2.35,-0.33,7.04,-3.92,2.45,-5.31
,,0,2025-11-18T17:46:38.269Z,10.39,10.11,-2.39,-0.39,7.83,-5.11,3.02,-5.11
,,0,2025-11-18T17:46:38.279Z,10.43,10.16,-2.36,-0.35,8.72,-6.02,3.58,-5.18
,,0,2025-11-18T17:46:38.289Z,10.51,10.25,-2.3,-0.33,9.42,-5.82,5.11,-5.36
,,0,2025-11-18T17:46:38.299Z,10.5,10.29,-2.08,-0.31,10.1,-6.17,6.2,-5.05
,,0,2025-11-18T17:46:38.309Z,10.46,10.26,-2.03,-0.37,10.51,-6.98,5.97,-5.12
,,0,2025-11-18T17:46:38.319Z,10.54,10.36,-1.97,-0.24,11.88,-8.15,6.73,-5.41
,,0,2025-11-18T17:46:38.329Z,10.44,10.28,-1.8,-0.28,12.64,-9.37,6.22,-5.76
,,0,2025-11-18T17:46:38.339Z,10.33,10.2,-1.64,-0.3,14.09,-10.9,6.71,-5.89
,,0,2025-11-18T17:46:38.349Z,10.36,10.25,-1.51,-0.27,15.46,-12.36,6.41,-6.73
,,0,2025-11-18T17:46:38.359Z,10.25,10.13,-1.56,-0.31,16.82,-13.54,7.02,-7.09
,,0,2025-11-18T17:46:38.369Z,10.16,10.06,-1.45,-0.15,17.64,-13.99,7.34,-7.85
,,0,2025-11-18T17:46:38.379Z,10.07,9.96,-1.49,-0.34,17.75,-13.69,7.56,-8.4
,,0,2025-11-18T17:46:38.389Z,9.92,9.8,-1.54,-0.17,17.05,-12.11,6.96,-9.78
,,0,2025-11-18T17:46:38.399Z,9.83,9.73,-1.42,-0.32,16.13,-9.89,5.87,-11.31
,,0,2025-11-18T17:46:38.409Z,9.87,9.78,-1.35,-0.13,15.36,-8.43,6.08,-11.31
,,0,2025-11-18T17:46:38.419Z,9.87,9.77,-1.36,-0.08,15.35,-7.34,6.05,-12.05
,,0,2025-11-18T17:46:38.429Z,9.74,9.64,-1.39,-0.09,15.19,-4.63,6.19,-13.08
,,0,2025-11-18T17:46:38.439Z,9.75,9.68,-1.21,0.12,14.99,-3.12,6.84,-12.97
,,0,2025-11-18T17:46:38.449Z,9.64,9.57,-1.14,0,14.37,-0.4,6.53,-12.79
,,0,2025-11-18T17:46:38.459Z,9.71,9.67,-0.86,0.01,14.09,0.77,6.78,-12.33
,,0,2025-11-18T17:46:38.469Z,9.78,9.75,-0.72,-0.04,12.61,-0.16,6.51,-10.79
,,0,2025-11-18T17:46:38.479Z,9.76,9.75,-0.56,0.04,12.22,-2.32,7.11,-9.66
,,0,2025-11-18T17:46:38.489Z,9.81,9.8,-0.52,0.05,12.98,-5.53,8.02,-8.57
,,0,2025-11-18T17:46:38.499Z,9.78,9.75,-0.72,0.07,13.25,-7.4,7.57,-7.96
,,0,2025-11-18T17:46:38.509Z,9.74,9.73,-0.46,-0.01,13.92,-8.89,7.18,-7.94
,,0,2025-11-18T17:46:38.519Z,9.69,9.68,-0.37,-0.05,14.69,-11.36,8.02,-4.76
,,0,2025-11-18T17:46:38.529Z,9.6,9.58,-0.6,0,18.23,-15.73,8.95,-2.17
,,0,2025-11-18T17:46:38.539Z,9.55,9.53,-0.65,0,21.53,-19.43,9.17,-1.45
,,0,2025-11-18T17:46:38.549Z,9.58,9.54,-0.77,0.11,24.73,-22.53,10.15,0.77
,,0,2025-11-18T17:46:38.559Z,9.52,9.51,-0.53,-0.08,26.89,-24.95,9.76,2.32
,,0,2025-11-18T17:46:38.569Z,9.4,9.39,-0.34,-0.36,26.64,-24.58,9.8,3.05
,,0,2025-11-18T17:46:38.579Z,9.36,9.33,-0.69,-0.25,27.79,-24.81,10.54,6.76
,,0,2025-11-18T17:46:38.589Z,9.37,9.29,-1.21,-0.26,28.95,-25.18,11.32,8.7
,,0,2025-11-18T17:46:38.599Z,9.3,9.2,-1.3,0.04,30.21,-26.19,11.69,9.49
,,0,2025-11-18T17:46:38.609Z,9.34,9.24,-1.33,-0.18,27.86,-23.08,12.88,8.79
,,0,2025-11-18T17:46:38.619Z,9.34,9.22,-1.47,-0.3,28.03,-21.98,13.46,11.02
,,0,2025-11-18T17:46:38.629Z,9.37,9.24,-1.5,-0.55,26.68,-18.94,14.98,11.34
,,0,2025-11-18T17:46:38.639Z,9.4,9.25,-1.62,-0.43,25.2,-16.26,15.82,10.96
,,0,2025-11-18T17:46:38.649Z,9.45,9.25,-1.87,-0.46,24.52,-13.48,17.31,10.95
,,0,2025-11-18T17:46:38.659Z,9.55,9.33,-2.01,-0.34,22.34,-9.23,18.42,8.63
,,0,2025-11-18T17:46:38.669Z,9.64,9.43,-2.01,-0.31,21.36,-4.02,19.99,6.37
,,0,2025-11-18T17:46:38.679Z,9.71,9.53,-1.81,-0.46,22.44,0.34,21.92,4.76
,,0,2025-11-18T17:46:38.689Z,9.65,9.5,-1.67,-0.5,25.43,6.97,24.44,1.08
,,0,2025-11-18T17:46:38.699Z,9.68,9.44,-2.09,-0.29,33.3,20.23,26.11,-4.21
,,0,2025-11-18T17:46:38.709Z,9.68,9.28,-2.74,0,46.58,38.51,24.64,-8.92
,,0,2025-11-18T17:46:38.719Z,9.36,8.95,-2.76,0.15,60.4,55.15,20.02,-14.36
,,0,2025-11-18T17:46:38.729Z,9.7,9.3,-2.78,0.06,76.63,71.73,17.65,-20.38
,,0,2025-11-18T17:46:38.739Z,9.8,9.47,-2.52,0.06,88.96,84.17,17.82,-22.63
,,0,2025-11-18T17:46:38.749Z,9.76,9.51,-2.17,0.12,93.09,87.91,19.32,-23.78
,,0,2025-11-18T17:46:38.759Z,9.7,9.61,-1.34,0.15,87.93,81.93,23.4,-21.72
,,0,2025-11-18T17:46:38.769Z,9.37,9.36,-0.41,0.11,76.96,70.01,25.62,-19.14
,,0,2025-11-18T17:46:38.779Z,9.25,9.25,-0.3,0.06,65.76,57.66,25.54,-18.62
,,0,2025-11-18T17:46:38.789Z,9.29,9.26,-0.72,0.34,49.79,39.37,27.3,-13.57
,,0,2025-11-18T17:46:38.799Z,9.27,9.22,-0.76,0.63,36.95,24.29,26.24,-9.28
,,0,2025-11-18T17:46:38.809Z,9.38,9.22,-1.37,1.02,31.81,15.44,25.95,-10.01
,,0,2025-11-18T17:46:38.819Z,9.51,9.22,-2.07,1.11,28.3,11.51,24.24,-8.97
,,0,2025-11-18T17:46:38.829Z,9.54,9.27,-2.07,0.84,27.2,10.68,23.54,-8.46
,,0,2025-11-18T17:46:38.839Z,9.67,9.37,-2.14,1.05,26.41,10.67,23.19,-6.78
,,0,2025-11-18T17:46:38.849Z,9.57,9.3,-1.95,1.08,23.82,6.32,22.95,-0.96
,,0,2025-11-18T17:46:38.859Z,9.75,9.47,-2,1.13,25.23,-4.02,23.47,8.34
,,0,2025-11-18T17:46:38.869Z,9.73,9.5,-1.78,1.1,36.26,-18.69,23.88,19.89
,,0,2025-11-18T17:46:38.879Z,9.9,9.67,-1.83,1.06,49.7,-33.03,25.06,27.41
,,0,2025-11-18T17:46:38.889Z,10.13,9.68,-2.77,1.16,57.06,-39.89,25.76,31.63
,,0,2025-11-18T17:46:38.899Z,10.4,9.64,-3.7,1.25,56.53,-38.1,25.13,33.36
,,0,2025-11-18T17:46:38.909Z,10.54,9.66,-3.9,1.55,51.47,-30.92,24.34,33.17
,,0,2025-11-18T17:46:38.919Z,10.61,9.7,-3.95,1.69,45.33,-21.41,23.17,32.56
,,0,2025-11-18T17:46:38.929Z,10.84,9.84,-4.15,1.83,43.48,-13.24,22.87,34.53
,,0,2025-11-18T17:46:38.939Z,10.78,9.95,-3.72,1.82,45.15,-7.73,25.5,36.45
,,0,2025-11-18T17:46:39.089Z,10.22,8.94,-4.45,2.18,48.72,-10.02,32.56,34.82
,,0,2025-11-18T17:46:39.097Z,10.58,9.39,-4.45,1.96,43.52,-6.85,32.67,27.92
,,0,2025-11-18T17:46:39.107Z,10.61,9.51,-4.35,1.83,43.85,-2.85,38.21,21.32
,,0,2025-11-18T17:46:39.117Z,10.42,9.16,-4.56,2,46.57,-1.53,44.2,14.59
,,0,2025-11-18T17:46:39.127Z,10.15,8.8,-4.51,2.27,50.14,-1.81,49.02,10.41
,,0,2025-11-18T17:46:39.137Z,10.05,8.64,-4.29,2.83,53.8,-4.93,52.57,10.28
,,0,2025-11-18T17:46:39.147Z,9.96,8.46,-4.23,3.1,54.37,-10.09,52.43,10.29
,,0,2025-11-18T17:46:39.157Z,10.43,8.55,-4.92,3.39,53.74,-14.53,51.07,8.34
,,0,2025-11-18T17:46:39.167Z,10.69,8.52,-5.36,3.59,54.98,-15.29,52.4,6.52
,,0,2025-11-18T17:46:39.177Z,10.91,8.51,-5.64,3.84,53.48,-9.33,52.64,1.52
,,0,2025-11-18T17:46:39.187Z,10.61,8.12,-5.58,3.94,45.47,-2.82,45.24,-3.59
,,0,2025-11-18T17:46:39.197Z,10.86,8.45,-5.51,4.02,40.47,2.01,39.01,-10.6
,,0,2025-11-18T17:46:39.207Z,11.11,8.99,-5.16,4,42.05,4.62,38.92,-15.23
,,0,2025-11-18T17:46:39.217Z,11.06,9.06,-4.96,3.96,48.16,2.21,42.77,-22.02
,,0,2025-11-18T17:46:39.227Z,10.45,8.71,-4.52,3.59,53.38,-2.97,45.88,-27.13
,,0,2025-11-18T17:46:39.237Z,10.55,8.63,-4.75,3.8,58.15,-9.88,48.86,-29.95
,,0,2025-11-18T17:46:39.247Z,10.83,8.63,-5.3,3.84,63.36,-16.3,51.76,-32.69
,,0,2025-11-18T17:46:39.257Z,10.63,8.49,-5.3,3.6,68.76,-19.21,55.93,-35.07
,,0,2025-11-18T17:46:39.267Z,10.66,8.36,-5.59,3.56,72.76,-19.88,58.02,-39.15
,,0,2025-11-18T17:46:39.277Z,10.95,8.64,-5.61,3.72,82.71,-27.55,67.05,-39.83
,,0,2025-11-18T17:46:39.287Z,10.59,8.62,-4.91,3.7,95.58,-41.44,75.09,-42.18
,,0,2025-11-18T17:46:39.297Z,10.97,9.17,-4.32,4.19,108.5,-52.69,83.97,-44.1
,,0,2025-11-18T17:46:39.307Z,10.65,8.92,-3.9,4.32,118.37,-61.43,91.98,-42.15
,,0,2025-11-18T17:46:39.317Z,10.11,8.35,-3.99,4.07,123.28,-69.28,93.97,-39.6
,,0,2025-11-18T17:46:39.327Z,10.15,8.22,-4.34,4.07,127.56,-75.82,95.43,-37.62
,,0,2025-11-18T17:46:39.337Z,10.3,7.96,-5.06,4.15,128.52,-76.02,96.29,-38.29
,,0,2025-11-18T17:46:39.347Z,10.18,7.31,-5.88,3.97,123.06,-70.71,94.03,-36.09
,,0,2025-11-18T17:46:39.357Z,10.08,7.01,-5.86,4.25,114.83,-62.79,89.75,-34.47
,,0,2025-11-18T17:46:39.367Z,9.84,6.9,-5.79,3.95,108.71,-57.34,85.31,-35.37
,,0,2025-11-18T17:46:39.377Z,9.85,6.95,-5.78,3.9,110.13,-59.21,85.93,-35.21
,,0,2025-11-18T17:46:39.387Z,9.81,6.77,-5.93,3.89,111.49,-60.73,86.65,-35.12
,,0,2025-11-18T17:46:39.397Z,9.43,6.44,-5.75,3.8,109.22,-62.53,83.37,-32.68
,,0,2025-11-18T17:46:39.407Z,8.73,6.19,-4.99,3.62,104.71,-64.5,76.95,-29.72
,,0,2025-11-18T17:46:39.417Z,8.6,6.37,-4.32,3.85,101.33,-67.14,70.72,-27.54
,,0,2025-11-18T17:46:39.427Z,8.86,6.58,-4.46,3.92,98.73,-65.78,67.57,-29.24
,,0,2025-11-18T17:46:39.437Z,8.87,6.47,-4.9,3.57,90.67,-56.47,62.41,-33.73
,,0,2025-11-18T17:46:39.447Z,8.7,6.46,-4.74,3.38,82.86,-49.1,56.07,-36.22
,,0,2025-11-18T17:46:39.457Z,8.47,6.55,-3.81,3.77,77.89,-48.7,51.61,-32.11
,,0,2025-11-18T17:46:39.467Z,8.09,6.41,-3.24,3.74,76.3,-55.27,46.43,-24.75
,,0,2025-11-18T17:46:39.477Z,8.31,6.83,-2.59,3.95,82,-68.09,41.72,-18.65
,,0,2025-11-18T17:46:39.487Z,8.7,7.51,-2.15,3.82,95.66,-83.44,43.55,-17.05
,,0,2025-11-18T17:46:39.497Z,8.65,7.37,-2.45,3.81,115.17,-104.05,47.5,-13.44
,,0,2025-11-18T17:46:39.507Z,8.85,6.94,-3.57,4.17,129.57,-119.97,48.48,-6.66
,,0,2025-11-18T17:46:39.517Z,9.47,6.68,-4.98,4.5,128.6,-120.79,43.55,-7.13
,,0,2025-11-18T17:46:39.527Z,10.33,6.67,-6.4,4.62,114.05,-107.75,36.11,-9.76
,,0,2025-11-18T17:46:39.537Z,10.45,6.99,-6.36,4.45,100.11,-94.15,32.17,-11.09
,,0,2025-11-18T17:46:39.547Z,9.86,7.11,-5.3,4.32,92.16,-85.52,32.69,-10.57
,,0,2025-11-18T17:46:39.557Z,9.16,7.1,-4,4.18,94.17,-86.47,35.58,-11.21
,,0,2025-11-18T17:46:39.567Z,8.83,6.94,-3.56,4.14,102.02,-93.66,38.76,-11.48
,,0,2025-11-18T17:46:39.577Z,9.08,6.74,-4.23,4.37,109.07,-101.53,38.93,-8.4
,,0,2025-11-18T17:46:39.587Z,9.59,6.46,-5.22,4.8,110.78,-104.62,36.17,-4.37
,,0,2025-11-18T17:46:39.597Z,10.05,6.31,-5.85,5.19,100.06,-94.94,31.31,-4.31
,,0,2025-11-18T17:46:39.607Z,10.32,6.37,-6.02,5.46,83.6,-78.69,26.34,-10.15
,,0,2025-11-18T17:46:39.617Z,10.33,6.43,-5.9,5.54,64.5,-57.83,23.05,-16.85
,,0,2025-11-18T17:46:39.627Z,10.26,6.53,-5.74,5.44,52.31,-42.69,21.89,-20.85
,,0,2025-11-18T17:46:39.637Z,9.71,6.33,-5.14,5.26,46.56,-34.68,21.17,-22.74
,,0,2025-11-18T17:46:39.647Z,9.59,6.36,-4.9,5.26,46.88,-32.84,20.27,-26.62
,,0,2025-11-18T17:46:39.657Z,9.78,6.6,-4.75,5.43,50.83,-34.48,22.1,-30.1
,,0,2025-11-18T17:46:39.667Z,10,6.67,-4.6,5.86,53.74,-34.68,25.4,-32.24
,,0,2025-11-18T17:46:39.677Z,10.03,6.63,-4.59,5.98,53.09,-32.75,25.15,-33.37
,,0,2025-11-18T17:46:39.687Z,9.9,6.44,-4.66,5.89,51.89,-32.12,23.89,-33.02
,,0,2025-11-18T17:46:39.697Z,9.72,6.41,-4.5,5.75,56.76,-34.93,22.82,-38.47
,,0,2025-11-18T17:46:39.707Z,9.57,6.41,-4.47,5.52,58.22,-38.69,21.59,-37.77
,,0,2025-11-18T17:46:39.717Z,9.53,6.68,-4.18,5.36,64,-47.27,21.65,-37.32
,,0,2025-11-18T17:46:39.727Z,9.93,7.02,-3.98,5.77,73.04,-55.7,22.83,-41.36
,,0,2025-11-18T17:46:39.737Z,10.78,7.34,-4.85,6.23,73.86,-50.27,24.87,-48.06
,,0,2025-11-18T17:46:39.747Z,11.45,7.44,-5.89,6.4,72.48,-38.89,21.82,-57.14
,,0,2025-11-18T17:46:39.757Z,11.22,7.65,-5.16,6.37,68.24,-30.63,17.21,-58.5
,,0,2025-11-18T17:46:39.767Z,10.66,7.74,-4.11,6.07,66.53,-33.03,14.35,-55.94
,,0,2025-11-18T17:46:39.777Z,10.38,7.94,-3.58,5.64,69.23,-42.13,13.89,-53.15
,,0,2025-11-18T17:46:39.787Z,10.36,8.03,-3.74,5.37,74.21,-50.44,14.4,-52.5
,,0,2025-11-18T17:46:39.797Z,9.95,7.81,-3.68,4.94,79.35,-59.2,12.73,-51.28
,,0,2025-11-18T17:46:39.807Z,9.56,7.74,-3.01,4.74,85.86,-69.94,9.53,-48.88
,,0,2025-11-18T17:46:39.817Z,9.5,7.78,-2.86,4.64,94.67,-81.7,5.31,-47.53
,,0,2025-11-18T17:46:39.827Z,9.46,7.9,-2.87,4.33,109.55,-99.95,1.81,-44.81
,,0,2025-11-18T17:46:39.837Z,9.53,7.95,-2.97,4.33,123.08,-115.57,0.13,-42.33
,,0,2025-11-18T17:46:39.847Z,9.76,8.03,-3.31,4.46,132.1,-125.68,-1.71,-40.63
,,0,2025-11-18T17:46:39.857Z,9.88,8.19,-3.48,4.29,135.63,-129.53,-2.66,-40.13
,,0,2025-11-18T17:46:39.867Z,9.95,8.33,-3.48,4.18,138.95,-133.36,-2.9,-38.9
,,0,2025-11-18T17:46:39.877Z,9.5,8.4,-2.8,3.45,149.38,-145.89,-1.63,-32.03
,,0,2025-11-18T17:46:39.887Z,9.26,8.49,-2.28,2.9,167.44,-165.79,-0.69,-23.38
,,0,2025-11-18T17:46:39.897Z,9.67,8.83,-3.34,2.11,184.07,-182.83,-8.03,-19.71
,,0,2025-11-18T17:46:39.907Z,11.23,10.33,-4.14,1.48,205.93,-204.56,-9.69,-21.56
,,0,2025-11-18T17:46:39.917Z,12.46,11.56,-4.52,1.06,218.58,-216.87,-6.56,-26.48
,,0,2025-11-18T17:46:39.927Z,13.37,12.46,-4.82,0.58,225.43,-222.68,-2.66,-35.01
,,0,2025-11-18T17:46:39.937Z,13.52,12.7,-4.63,-0.34,227.1,-222.97,5.15,-42.82
,,0,2025-11-18T17:46:39.947Z,13.38,12.7,-4.16,-0.72,227.42,-221.85,11.71,-48.64
,,0,2025-11-18T17:46:39.957Z,13.2,12.57,-3.86,-1.2,227.57,-220.92,17.27,-51.82
,,0,2025-11-18T17:46:39.967Z,12.75,12.14,-3.39,-1.96,228.85,-220.57,21.04,-57.24
,,0,2025-11-18T17:46:39.977Z,12.2,11.53,-3.23,-2.29,224.01,-213.34,23.56,-64.09
,,0,2025-11-18T17:46:39.987Z,11.94,11.07,-3.85,-2.26,216.76,-203.99,22.31,-69.82
,,0,2025-11-18T17:46:39.997Z,11.73,10.86,-4.09,-1.65,210.44,-194.75,18.44,-77.57
,,0,2025-11-18T17:46:40.007Z,11.69,10.81,-4.31,-1.15,202.56,-182.57,14.68,-86.5
,,0,2025-11-18T17:46:40.017Z,11.54,10.82,-3.92,-0.81,194.99,-170.63,12.95,-93.48
,,0,2025-11-18T17:46:40.027Z,11.22,10.96,-2.27,-0.7,194.17,-167.88,15.88,-96.27
,,0,2025-11-18T17:46:40.037Z,10.94,10.87,-0.51,-1.14,203.04,-177.92,19.49,-95.85
,,0,2025-11-18T17:46:40.047Z,11.19,11.12,0.29,-1.26,216.53,-193.2,24.35,-94.69
,,0,2025-11-18T17:46:40.058Z,11.56,11.48,0.07,-1.38,231.31,-209.82,32.62,-91.74
,,0,2025-11-18T17:46:40.067Z,11.63,11.5,0.1,-1.73,239.04,-216.21,42.5,-92.66
,,0,2025-11-18T17:46:40.077Z,11.9,11.72,0.48,-2.04,249.93,-224.74,53.99,-95.1
,,0,2025-11-18T17:46:40.087Z,12.13,11.84,0.93,-2.5,270.24,-244.02,64.85,-96.31
,,0,2025-11-18T17:46:40.097Z,12.44,12.06,1.32,-2.75,279.23,-250.14,76.73,-97.53
,,0,2025-11-18T17:46:40.107Z,12.68,12.28,1.23,-2.92,282.57,-250.14,87.53,-98.05
,,0,2025-11-18T17:46:40.117Z,12.87,12.24,1.41,-3.7,284.88,-250.14,96.08,-96.73
,,0,2025-11-18T17:46:40.127Z,13.29,12.73,0.88,-3.72,286.83,-250.14,108.27,-89.31
,,0,2025-11-18T17:46:40.137Z,13.14,12.61,-0.56,-3.66,287.43,-250.14,118.93,-76.82
,,0,2025-11-18T17:46:40.147Z,12.53,12.09,-1.51,-2.96,291.18,-250.14,126.4,-78.98
,,0,2025-11-18T17:46:40.157Z,12.02,11.7,-1.39,-2.35,291.87,-250.14,125.78,-82.47
,,0,2025-11-18T17:46:40.167Z,11.69,11.41,-0.24,-2.55,289.77,-250.14,124.79,-76.34
,,0,2025-11-18T17:46:40.177Z,11.22,10.71,-0.85,-3.25,286.94,-250.14,123.82,-66.6
,,0,2025-11-18T17:46:40.187Z,11.86,11.82,-0.29,-0.92,282.87,-250.14,118.32,-58.72
,,0,2025-11-18T17:46:40.197Z,11.99,11.96,0.21,-0.89,285.77,-250.14,124.48,-59.99
,,0,2025-11-18T17:46:40.207Z,12.19,12.1,-0.3,-1.44,286.29,-250.14,130.41,-48.85
,,0,2025-11-18T17:46:40.217Z,11.77,11.69,0.04,-1.41,287.57,-250.14,137.04,-36.69
,,0,2025-11-18T17:46:40.227Z,11.31,11.27,-0.37,-0.84,288.12,-250.14,140.11,-28.52
,,0,2025-11-18T17:46:40.237Z,11.15,11.07,-1.32,-0.14,286.93,-250.14,139.35,-18.4
,,0,2025-11-18T17:46:40.247Z,11.4,11.24,-1.91,0.36,287.18,-250.14,141.02,-3.9
,,0,2025-11-18T17:46:40.257Z,11.42,11.17,-2.35,0.54,288.43,-250.14,143.11,12
,,0,2025-11-18T17:46:40.267Z,11.45,11.04,-2.97,0.71,290.4,-250.14,145.45,24.6
,,0,2025-11-18T17:46:40.277Z,11.52,10.64,-4.33,0.86,292.09,-250.14,145.89,38.28
,,0,2025-11-18T17:46:40.287Z,11.72,10.06,-5.91,1.1,292.97,-250.14,143.5,51.67
,,0,2025-11-18T17:46:40.297Z,12.2,9.78,-7.12,1.59,293.8,-250.14,139.79,64.86
,,0,2025-11-18T17:46:40.307Z,12.68,9.61,-8.05,1.89,295.61,-250.14,136.67,78.35
,,0,2025-11-18T17:46:40.317Z,12.96,9.7,-8.33,2.09,274.76,-222.79,134.26,88.51
,,0,2025-11-18T17:46:40.327Z,12.88,9.77,-8.13,2.12,250.78,-189.89,133.16,95.4
,,0,2025-11-18T17:46:40.337Z,13.76,9.81,-9.28,2.67,218.98,-148.41,129.55,95.62
,,0,2025-11-18T17:46:40.347Z,15.12,9.97,-10.84,3.43,180.21,-93.05,124.92,90.62
,,0,2025-11-18T17:46:40.357Z,15.59,9.98,-11.27,4.04,155.38,-40.74,122.17,86.93
,,0,2025-11-18T17:46:40.367Z,14.36,9.99,-9.48,4.07,144.39,2.08,120.67,79.27
,,0,2025-11-18T17:46:40.377Z,13.15,10.19,-7.35,3.89,152.43,17.31,130.16,77.41
,,0,2025-11-18T17:46:40.387Z,11.97,9.91,-5.21,4.26,165.13,5.69,143.27,81.89
,,0,2025-11-18T17:46:40.397Z,11.02,8.93,-4.66,4.46,173.57,-13.3,148.46,88.94
,,0,2025-11-18T17:46:40.407Z,11.3,8.84,-5.25,4.67,183.26,-29.64,149.99,101.04
,,0,2025-11-18T17:46:40.417Z,12.13,8.79,-6.63,5.08,190.95,-36.56,150.02,112.34
,,0,2025-11-18T17:46:40.427Z,12.81,8.93,-7.67,5.08,197.46,-39.77,152.85,118.51
,,0,2025-11-18T17:46:40.437Z,13.15,9.2,-7.89,5.08,199.92,-35.98,155.08,120.92
,,0,2025-11-18T17:46:40.447Z,13.34,9.19,-8.24,5.07,204.86,-32.37,159.4,124.53
,,0,2025-11-18T17:46:40.457Z,13.51,8.95,-8.59,5.34,209.89,-26.72,164.3,127.85
,,0,2025-11-18T17:46:40.467Z,13.7,8.68,-8.97,5.63,213.51,-16.98,166.55,132.5
,,0,2025-11-18T17:46:40.477Z,13.6,8.72,-8.81,5.6,216.86,-9.02,168.95,135.66
,,0,2025-11-18T17:46:40.487Z,13,8.75,-8.04,5.28,220.09,-3.37,171.09,138.4
,,0,2025-11-18T17:46:40.497Z,12.83,8.61,-7.88,5.31,222.06,-1.59,172.4,139.95
,,0,2025-11-18T17:46:40.507Z,12.97,8.34,-8.25,5.54,222.61,-0.26,172.28,140.97
,,0,2025-11-18T17:46:40.517Z,12.98,8.02,-8.76,5.24,221.54,8.38,171.76,139.67
,,0,2025-11-18T17:46:40.527Z,12.53,7.68,-8.63,4.85,222.2,14.86,171.65,140.32
,,0,2025-11-18T17:46:40.537Z,11.75,7.14,-8.14,4.56,220.03,21.8,169.77,138.27
,,0,2025-11-18T17:46:40.547Z,12.07,7.04,-8.52,4.85,218.54,22.72,168.32,137.52
,,0,2025-11-18T17:46:40.557Z,11.95,6.91,-8.4,4.93,217.39,22.07,168.06,136.11
,,0,2025-11-18T17:46:40.567Z,12.1,6.8,-8.56,5.17,215.89,22.73,168.22,133.39
,,0,2025-11-18T17:46:40.577Z,11.46,6.26,-8.1,5.15,214.29,22.26,167.29,132.05
,,0,2025-11-18T17:46:40.587Z,10.82,5.64,-7.89,4.79,208.81,21.47,162.89,128.87
,,0,2025-11-18T17:46:40.597Z,10.83,5.39,-8.08,4.79,209.48,21.47,161.74,131.37
,,0,2025-11-18T17:46:40.607Z,10.68,4.99,-8.15,4.77,208.56,20.4,158.4,134.13
,,0,2025-11-18T17:46:40.617Z,10.33,4.68,-7.98,4.61,205.61,18.99,154.37,134.48
,,0,2025-11-18T17:46:40.627Z,9.91,4.44,-7.74,4.31,204.66,13.74,152.05,136.29
,,0,2025-11-18T17:46:40.637Z,9.32,3.86,-7.49,3.98,202.09,10.53,147.66,137.57
,,0,2025-11-18T17:46:40.647Z,9.34,3.34,-7.89,3.7,200.36,7.99,144.06,139.02
,,0,2025-11-18T17:46:40.657Z,9.7,3.06,-8.3,3.97,198.45,8.11,140.07,140.35
,,0,2025-11-18T17:46:40.667Z,9.94,2.59,-8.56,4.33,194.7,9.97,135.24,139.71
,,0,2025-11-18T17:46:40.677Z,9.92,2.11,-8.67,4.34,190.31,13.31,130.73,137.66
,,0,2025-11-18T17:46:40.687Z,9.28,1.34,-8.27,3.99,183.08,20.14,124.14,133.05
,,0,2025-11-18T17:46:40.697Z,8.63,0.87,-7.66,3.88,177.73,25.45,118.1,130.35
,,0,2025-11-18T17:46:40.707Z,8.9,0.4,-7.88,4.13,172.84,23.95,114.62,127.14
,,0,2025-11-18T17:46:40.717Z,8.54,0.06,-7.38,4.29,169.18,19.25,111.1,126.12
,,0,2025-11-18T17:46:40.727Z,8.16,-0.76,-6.78,4.48,169.25,9.86,109.88,128.35
,,0,2025-11-18T17:46:40.737Z,8.75,-1.53,-7.17,4.77,165.44,4.27,106.71,126.36
,,0,2025-11-18T17:46:40.747Z,9.29,-2.06,-7.58,4.95,165.03,-2.02,104.85,127.42
,,0,2025-11-18T17:46:40.757Z,9.65,-2.81,-7.72,5.06,161,-1.37,100.89,125.47
,,0,2025-11-18T17:46:40.767Z,10.12,-3.22,-8,5.3,157.34,-0.17,97.18,123.74
,,0,2025-11-18T17:46:40.777Z,9.69,-3.29,-7.48,5.21,158.36,-9.32,96.61,125.13
,,0,2025-11-18T17:46:40.787Z,9.56,-3.86,-7.07,5.15,160.69,-20.53,95.82,127.34
,,0,2025-11-18T17:46:40.797Z,10.17,-4.2,-7.73,5.11,162.65,-30.6,96.28,127.47
,,0,2025-11-18T17:46:40.807Z,10.87,-4.79,-8.34,5.07,164.77,-32.79,96.02,129.83
,,0,2025-11-18T17:46:40.817Z,11.56,-5.34,-9.12,4.68,170.64,-34.6,97.73,135.53
,,0,2025-11-18T17:46:40.827Z,11.62,-5.85,-9.1,4.26,173.08,-33.18,96.4,139.86
,,0,2025-11-18T17:46:40.837Z,11.97,-6.36,-9.32,4.01,171.69,-30.15,93.24,140.98
,,0,2025-11-18T17:46:40.847Z,12.99,-6.84,-10.32,3.95,166.84,-16.02,88.04,140.82
,,0,2025-11-18T17:46:40.857Z,13.78,-6.87,-11.28,3.93,161.79,1.74,83.6,138.5
,,0,2025-11-18T17:46:40.867Z,12.95,-6.76,-10.41,3.7,163,9.08,82.42,140.33
,,0,2025-11-18T17:46:40.877Z,12.36,-7.26,-9.35,3.54,164.46,4.48,82.4,142.26
,,0,2025-11-18T17:46:40.887Z,12.7,-8.01,-9.27,3.34,165.18,-3.88,81.98,143.35
,,0,2025-11-18T17:46:40.897Z,12.44,-8.18,-8.79,3.25,174.53,-18.28,85.08,151.29
,,0,2025-11-18T17:46:40.907Z,12.65,-8.76,-8.58,3.11,187.33,-34.8,87.28,162.06
,,0,2025-11-18T17:46:40.917Z,13.03,-9.11,-8.88,2.81,195.26,-45.24,86.81,168.95
,,0,2025-11-18T17:46:40.927Z,13.57,-9.6,-9.18,2.77,202.59,-52.68,85.24,176.08
,,0,2025-11-18T17:46:40.937Z,14.19,-10.18,-9.58,2.41,208.58,-58.47,82.63,182.37
,,0,2025-11-18T17:46:40.947Z,14.24,-10.4,-9.47,2.2,213.71,-66.63,82.11,185.71
,,0,2025-11-18T17:46:40.957Z,14.73,-10.96,-9.68,1.79,216.08,-69.77,81.59,187.53
,,0,2025-11-18T17:46:40.967Z,15.33,-11.35,-10.16,1.76,219.07,-71.63,82.71,189.79
,,0,2025-11-18T17:46:40.977Z,14.76,-11.25,-9.47,1.22,231.43,-86.46,86.38,196.53
,,0,2025-11-18T17:46:40.987Z,14.73,-11.5,-9.17,0.82,247.29,-107.2,91.27,203.31
,,0,2025-11-18T17:46:40.997Z,15.26,-11.75,-9.73,0.33,263.16,-126.13,95.57,210.26
,,0,2025-11-18T17:46:41.007Z,15.89,-12.42,-9.91,-0.3,278.07,-144.6,98.82,215.98
,,0,2025-11-18T17:46:41.017Z,16.69,-13.23,-10.13,-0.84,293.22,-162.98,99.34,222.6
,,0,2025-11-18T17:46:41.027Z,17.6,-13.96,-10.61,-1.51,307.48,-178.92,98.21,229.97
,,0,2025-11-18T17:46:41.037Z,18.3,-14.41,-11.04,-2.34,319.27,-191.76,96.96,236.13
,,0,2025-11-18T17:46:41.047Z,18.7,-14.55,-11.23,-3.47,331.96,-207.32,94.96,241.24
,,0,2025-11-18T17:46:41.057Z,18.5,-14.38,-10.68,-4.61,348.92,-228.05,93.97,246.79
,,0,2025-11-18T17:46:41.067Z,18.87,-14.37,-10.68,-5.95,363.96,-248.28,90.87,250.13
,,0,2025-11-18T17:46:41.077Z,19.7,-14.71,-11.09,-6.97,363.7,-250.14,84.53,250.13
,,0,2025-11-18T17:46:41.087Z,19.85,-13.57,-10.61,-9.85,361.12,-250.14,87.78,245.22
,,0,2025-11-18T17:46:41.362Z,28.07,19.62,-19.62,-4.23,354.01,-13.72,-250.14,-250.14
,,0,2025-11-18T17:46:41.371Z,27.99,19.62,-19.62,-3.7,355.31,33.33,-250.14,-250.14
,,0,2025-11-18T17:46:41.381Z,27.87,19.62,-19.62,-2.67,359.57,64.44,-250.14,-250.14
,,0,2025-11-18T17:46:41.391Z,27.78,19.62,-19.62,-1.29,355.78,38.02,-250.14,-250.14
,,0,2025-11-18T17:46:41.401Z,27.96,19.62,-19.62,-3.48,353.75,-1.4,-250.14,-250.14
,,0,2025-11-18T17:46:41.411Z,28.63,19.62,-18.58,-9.47,353.89,10.15,-250.14,-250.14
,,0,2025-11-18T17:46:41.421Z,25.93,14.07,-13.44,-17.14,362.16,77.6,-250.14,-250.14
,,0,2025-11-18T17:46:41.431Z,21.38,7.84,-3.25,-19.62,391.63,168.05,-250.14,-250.14
,,0,2025-11-18T17:46:41.441Z,22.32,10.26,-2.84,-19.62,433.25,250.13,-250.14,-250.14
,,0,2025-11-18T17:46:41.451Z,28.56,19.62,-6.76,-19.62,433.25,250.13,-250.14,-250.14
,,0,2025-11-18T17:46:41.461Z,29.46,19.62,-9.91,-19.62,433.25,250.13,-250.14,-250.14
,,0,2025-11-18T17:46:41.471Z,28.13,19.62,-4.62,-19.62,433.25,250.13,-250.14,-250.14
,,0,2025-11-18T17:46:41.481Z,27.79,19.62,1.63,-19.62,423.74,250.13,-250.14,-233.28
,,0,2025-11-18T17:46:41.491Z,27.97,19.62,3.53,-19.62,370.62,250.13,-250.14,-110.56
,,0,2025-11-18T17:46:41.501Z,27.79,19.62,1.51,-19.62,354.09,250.13,-250.14,-15.6
,,0,2025-11-18T17:46:41.511Z,27.75,19.62,0.36,-19.62,357.95,250.13,-250.14,54.71
,,0,2025-11-18T17:46:41.521Z,27.8,19.62,1.78,-19.62,368.77,250.13,-250.14,104.2
,,0,2025-11-18T17:46:41.531Z,28.06,19.62,4.21,-19.62,381.83,250.13,-250.14,143.75
,,0,2025-11-18T17:46:41.541Z,28.23,19.62,5.19,-19.62,390.79,250.13,-250.14,166.08
,,0,2025-11-18T17:46:41.551Z,28.18,19.62,4.93,-19.62,391.42,250.13,-250.14,167.55
,,0,2025-11-18T17:46:41.561Z,28.79,19.62,7.68,-19.62,385.32,250.13,-250.14,152.77
,,0,2025-11-18T17:46:41.571Z,29.41,19.62,10.04,-19.47,382.05,250.13,-250.14,144.32
,,0,2025-11-18T17:46:41.581Z,28.39,19.62,9.98,-17.93,384.91,250.13,-250.14,151.74
,,0,2025-11-18T17:46:41.591Z,27.13,19.62,8.37,-16.76,385.58,250.13,-246.84,158.67
,,0,2025-11-18T17:46:41.601Z,26.22,19.62,7.11,-15.87,373.99,250.13,-226.99,160.56
,,0,2025-11-18T17:46:41.611Z,25.35,19.62,6.03,-14.89,374.69,250.13,-209.29,184.46
,,0,2025-11-18T17:46:41.621Z,24.72,19.62,6.29,-13.66,361.3,250.13,-197.69,169.97
,,0,2025-11-18T17:46:41.631Z,23.7,19.62,4.92,-12.36,340.18,250.13,-167.12,158.84
,,0,2025-11-18T17:46:41.641Z,22.66,19.62,4.85,-10.24,314.98,250.13,-126.36,143.81
,,0,2025-11-18T17:46:41.651Z,22.27,19.62,5.53,-8.96,294.86,238.12,-96.84,144.44
,,0,2025-11-18T17:46:41.661Z,21.47,19.62,5.07,-7.08,270.51,213.57,-80.13,145.4
,,0,2025-11-18T17:46:41.671Z,20.65,19.62,3.41,-5.48,267.63,197.64,-80.53,161.48
,,0,2025-11-18T17:46:41.681Z,20.37,19.62,2.26,-4.99,249.27,179.38,-76.63,155.19
,,0,2025-11-18T17:46:41.691Z,20.45,19.62,2.19,-5.34,222.21,158.77,-55.79,145.11
,,0,2025-11-18T17:46:41.701Z,20.39,19.62,2.66,-4.89,211.22,141.72,-29.69,153.79
,,0,2025-11-18T17:46:41.711Z,20.18,19.62,2.41,-4.06,202.03,126.4,-5.99,157.48
,,0,2025-11-18T17:46:41.721Z,20.03,19.62,1.96,-3.54,190.71,116.4,8.43,150.83
,,0,2025-11-18T17:46:41.731Z,19.87,19.62,1.23,-2.92,184.49,109.6,19.42,147.12
,,0,2025-11-18T17:46:41.741Z,18.56,18.38,0.73,-2.49,178.39,106.08,32.35,139.73
,,0,2025-11-18T17:46:41.751Z,16.56,16.44,1.17,-1.6,182.99,102.57,33.24,147.85
,,0,2025-11-18T17:46:41.761Z,15.5,15.39,1.61,-0.89,171.36,88.95,35.68,142.05
,,0,2025-11-18T17:46:41.771Z,14.04,13.99,1.17,-0.05,158.37,75.81,37.76,133.82
,,0,2025-11-18T17:46:41.781Z,12.38,12.35,0.55,0.65,146.2,62.79,36.96,126.75
,,0,2025-11-18T17:46:41.791Z,11,10.94,-0.12,1.18,133.75,58.48,32.82,115.72
,,0,2025-11-18T17:46:41.801Z,9.56,9.47,-0.49,1.23,124.92,56.15,22.36,109.33
,,0,2025-11-18T17:46:41.811Z,8.63,8.55,-0.37,1.1,116.76,53.11,15.05,102.89
,,0,2025-11-18T17:46:41.821Z,7.85,7.77,-0.38,1.03,105.09,45.3,7.85,94.5
,,0,2025-11-18T17:46:41.831Z,7.34,7.26,-0.53,0.96,95.59,41.73,1.24,85.99
,,0,2025-11-18T17:46:41.841Z,7.09,7.01,-0.75,0.76,86.32,36.69,-1.54,78.12
,,0,2025-11-18T17:46:41.851Z,6.81,6.67,-1.21,0.62,75.55,35.4,1.08,66.73
,,0,2025-11-18T17:46:41.861Z,6.9,6.55,-2.12,0.49,61.69,35.24,6.05,50.27
,,0,2025-11-18T17:46:41.871Z,6.12,5.5,-2.68,0.34,59.84,38.12,7.57,45.5
,,0,2025-11-18T17:46:41.881Z,5.61,4.88,-2.73,0.46,59.56,39.07,4.89,44.69
,,0,2025-11-18T17:46:41.891Z,5.46,4.77,-2.62,0.48,53.22,35.93,2.82,39.15
,,0,2025-11-18T17:46:41.901Z,5.67,4.93,-2.75,0.52,46.86,30.4,3.77,35.47
,,0,2025-11-18T17:46:41.911Z,5.81,4.93,-2.98,0.73,41.73,24.14,8.67,32.92
,,0,2025-11-18T17:46:41.921Z,5.87,4.55,-3.64,0.73,41.12,24.45,15.51,29.2
,,0,2025-11-18T17:46:41.931Z,6.2,3.87,-4.79,0.68,43.28,29.66,19.89,24.45
,,0,2025-11-18T17:46:41.941Z,6.56,3.1,-5.77,0.43,48.43,40.69,20.23,16.75
,,0,2025-11-18T17:46:41.951Z,6.97,2.91,-6.32,0.48,59.38,55.51,20.35,5.52
,,0,2025-11-18T17:46:41.961Z,7.12,2.62,-6.6,0.45,78.55,76.14,18.74,-4.77
,,0,2025-11-18T17:46:41.971Z,7.1,2.45,-6.66,0.33,91.48,89.55,16.85,-8.15
,,0,2025-11-18T17:46:41.981Z,6.64,2.4,-6.18,0.4,92.6,90.95,16.38,-5.77
,,0,2025-11-18T17:46:41.991Z,6.35,2.23,-5.93,0.47,92.79,91.11,17.04,-4.17
,,0,2025-11-18T17:46:42.001Z,7.1,2.22,-6.72,0.57,97.44,95.91,17.14,-1.31
,,0,2025-11-18T17:46:42.011Z,8.35,2.44,-7.92,1.03,105.42,103.8,18.11,3.21
,,0,2025-11-18T17:46:42.021Z,8.67,2.45,-8.26,1.02,114.58,112.69,19.27,7.68
,,0,2025-11-18T17:46:42.031Z,8.46,2.49,-7.95,1.48,124.7,121.39,25.43,12.99
,,0,2025-11-18T17:46:42.041Z,7.91,2.01,-7.47,1.66,126.69,122.77,25.58,17.96
,,0,2025-11-18T17:46:42.051Z,7.99,1.73,-7.57,1.87,124.22,118.56,26.27,26.18
,,0,2025-11-18T17:46:42.061Z,8.63,1.7,-8.16,2.27,125.59,119.27,25.05,30.29
,,0,2025-11-18T17:46:42.071Z,9.04,1.57,-8.7,1.9,121.01,116.87,19.31,24.73
,,0,2025-11-18T17:46:42.081Z,10.01,1.84,-9.65,1.96,121.13,119.2,15.41,15.05
,,0,2025-11-18T17:46:42.091Z,11.65,2.54,-11.05,2.66,118.52,117.9,8.53,8.51
,,0,2025-11-18T17:46:42.101Z,13.21,3.48,-12.4,2.96,122.05,121.37,3.69,-12.31
,,0,2025-11-18T17:46:42.111Z,14.89,4.28,-13.9,3.22,131.68,126.76,5.55,-35.23
,,0,2025-11-18T17:46:42.121Z,15.12,4.4,-14.17,2.86,141.26,132.92,5.37,-47.52
,,0,2025-11-18T17:46:42.131Z,14.31,4.64,-13.35,2.29,142.95,131.32,6.83,-56.06
,,0,2025-11-18T17:46:42.141Z,13.75,5.46,-12.36,2.51,135.24,116.66,15.92,-66.52
,,0,2025-11-18T17:46:42.151Z,14.05,6.15,-12.23,3.19,124.47,96.15,30.6,-72.88
,,0,2025-11-18T17:46:42.161Z,14.73,5.93,-12.96,3.73,113.77,76.99,39.91,-73.65
,,0,2025-11-18T17:46:42.171Z,15.48,5.68,-13.7,4.42,109.83,66.34,46.27,-74.31
,,0,2025-11-18T17:46:42.181Z,16.02,5.32,-14.44,4.44,111.74,68.23,45.57,-75.85
,,0,2025-11-18T17:46:42.191Z,16.08,5.25,-14.63,4.11,120.33,79.12,42.05,-80.31
,,0,2025-11-18T17:46:42.201Z,15.73,5.38,-14.35,3.57,131.6,92.6,38.71,-85.12
,,0,2025-11-18T17:46:42.211Z,14.69,5.59,-13.08,3.65,138.51,97.83,42.16,-88.52
,,0,2025-11-18T17:46:42.221Z,13.5,5.56,-11.82,3.41,136.99,94.04,45.29,-88.72
,,0,2025-11-18T17:46:42.231Z,12.35,5.47,-10.53,3.42,126.97,79.17,51.73,-84.72
,,0,2025-11-18T17:46:42.241Z,11.27,5.17,-9.41,3.43,116.8,56.5,59.33,-83.24
,,0,2025-11-18T17:46:42.251Z,10.65,4.8,-8.89,3.39,112.81,34.89,63.44,-86.51
,,0,2025-11-18T17:46:42.261Z,10.53,4.88,-8.64,3.53,112.08,17.24,66.41,-88.63
,,0,2025-11-18T17:46:42.271Z,10.38,4.2,-8.9,3.29,110.75,6.2,69.72,-85.83
,,0,2025-11-18T17:46:42.281Z,9.96,4.12,-8.41,3.39,111.82,-10.21,66.59,-89.24
,,0,2025-11-18T17:46:42.291Z,9.47,4.35,-7.87,2.99,119.14,-32.83,69.51,-91.02
,,0,2025-11-18T17:46:42.301Z,8.85,4.09,-7.34,2.78,126.92,-55.42,74.75,-86.32
,,0,2025-11-18T17:46:42.311Z,8.84,3.92,-7.38,2.89,137.18,-77.21,79.98,-80.37
,,0,2025-11-18T17:46:42.321Z,9.29,4,-7.85,2.94,150.81,-91.12,85.68,-84.25
,,0,2025-11-18T17:46:42.331Z,9.98,3.48,-8.8,3.18,147.89,-89.63,91.43,-74.02
,,0,2025-11-18T17:46:42.341Z,10.75,2.67,-9.95,3.07,135.22,-73.68,87.86,-71.66
,,0,2025-11-18T17:46:42.351Z,10.23,2.91,-9.36,2.95,126,-61.99,79.79,-75.27
,,0,2025-11-18T17:46:42.361Z,8.73,3.44,-7.56,2.7,131.78,-60.16,81.88,-83.92
,,0,2025-11-18T17:46:42.371Z,7.6,3.23,-6.45,2.37,136.79,-66.85,84.5,-84.27
,,0,2025-11-18T17:46:42.381Z,6.86,3,-5.91,1.78,142.08,-79.74,86.85,-79.27
,,0,2025-11-18T17:46:42.391Z,6.1,2.94,-5.13,1.51,152.47,-98.12,89.63,-74.75
,,0,2025-11-18T17:46:42.401Z,5.64,2.95,-4.6,1.36,166.31,-118.66,93.47,-69.59
,,0,2025-11-18T17:46:42.411Z,5.81,3.02,-4.77,1.39,175.9,-130.2,97.34,-67.18
,,0,2025-11-18T17:46:42.421Z,7.05,3.46,-5.94,1.56,178.43,-129.22,101.15,-70.06
,,0,2025-11-18T17:46:42.431Z,8.04,3.38,-7.17,1.35,173.12,-117.7,103.08,-74.11
,,0,2025-11-18T17:46:42.441Z,9.02,3.68,-8.12,1.39,164.07,-92.44,107.37,-82.75
,,0,2025-11-18T17:46:42.451Z,9.89,2.49,-9.49,1.25,139.56,-61.88,100.11,-75.01
,,0,2025-11-18T17:46:42.461Z,8.3,2.04,-7.92,1.41,131.89,-49.51,95.47,-76.36
,,0,2025-11-18T17:46:42.471Z,7.13,2.38,-6.55,1.49,131.9,-50.91,95.37,-75.58
,,0,2025-11-18T17:46:42.481Z,7.26,2.85,-6.39,1.96,133.46,-60.95,95.39,-70.7
,,0,2025-11-18T17:46:42.491Z,7.43,3.03,-6.46,2.09,137.14,-69.9,96.8,-67.46
,,0,2025-11-18T17:46:42.501Z,7.88,3.35,-6.85,1.97,141.28,-73.74,99.9,-67.4
,,0,2025-11-18T17:46:42.511Z,8.21,3.32,-7.29,1.79,142.81,-71.74,101.59,-70.19
,,0,2025-11-18T17:46:42.521Z,8.25,3.59,-7.26,1.57,143.58,-69.99,101.18,-74.02
,,0,2025-11-18T17:46:42.531Z,8.38,3.68,-7.42,1.28,144.65,-68.58,101.59,-76.81
,,0,2025-11-18T17:46:42.541Z,9.14,4.11,-8.05,1.4,149.83,-71.42,104.34,-80.39
,,0,2025-11-18T17:46:42.551Z,9.94,4.46,-8.75,1.48,159.59,-72.61,111.69,-87.87
,,0,2025-11-18T17:46:42.561Z,9.93,4.42,-8.75,1.54,169.99,-74.74,118.76,-95.95
,,0,2025-11-18T17:46:42.571Z,8.91,3.96,-7.83,1.53,174.77,-75.4,123.98,-97.42
,,0,2025-11-18T17:46:42.581Z,7.83,3.24,-6.99,1.43,169.87,-78.98,119.17,-91.75
,,0,2025-11-18T17:46:42.591Z,7.63,3.42,-6.65,1.51,166.89,-84.01,116.32,-85.23
,,0,2025-11-18T17:46:42.601Z,8.06,4.07,-6.84,1.24,167.39,-90.57,113.33,-83.51
,,0,2025-11-18T17:46:42.611Z,7.47,4.28,-6.06,0.81,171.68,-100.61,112.33,-82.07
,,0,2025-11-18T17:46:42.621Z,7,4.4,-5.41,0.65,180.86,-113.48,116.56,-79.02
,,0,2025-11-18T17:46:42.631Z,7.29,4.26,-5.85,0.84,190.52,-126.62,119.38,-77.56
,,0,2025-11-18T17:46:42.641Z,7.78,4.17,-6.51,0.89,196.76,-135.56,117.94,-80.17
,,0,2025-11-18T17:46:42.651Z,8.2,4.14,-6.93,1.44,201.17,-142.21,115.44,-83.19
,,0,2025-11-18T17:46:42.661Z,8.97,4.53,-7.46,2.08,202.8,-145.67,111.11,-86.95
,,0,2025-11-18T17:46:42.671Z,9.91,5.09,-8.13,2.49,203.56,-145.35,108.18,-92.79
,,0,2025-11-18T17:46:42.681Z,12.4,6.06,-10.24,3.46,193.42,-125.34,107.5,-100.73
,,0,2025-11-18T17:46:42.691Z,14.75,6.88,-12.49,3.8,176.34,-100.43,98.95,-105.92
,,0,2025-11-18T17:46:42.701Z,15.01,7.89,-12.1,4.07,166.38,-79.86,96.8,-109.24
,,0,2025-11-18T17:46:42.711Z,13.63,8.43,-9.95,3.97,169.02,-74.02,102.64,-112.04
,,0,2025-11-18T17:46:42.721Z,11.92,8.1,-7.92,3.7,177.91,-92.47,110.14,-104.73
,,0,2025-11-18T17:46:42.731Z,11.28,7.93,-7.2,3.52,187.65,-121.08,112.21,-89.22
,,0,2025-11-18T17:46:42.741Z,12.02,8.14,-8.22,3.27,198.76,-139.53,115.98,-81.15
,,0,2025-11-18T17:46:42.751Z,13.5,8.36,-10.13,3.12,204.71,-140.99,120.39,-86.79
,,0,2025-11-18T17:46:42.761Z,15.05,8.02,-12.19,3.66,194.18,-120.67,122.02,-90.85
,,0,2025-11-18T17:46:42.771Z,15.57,7.07,-13.22,4.22,171.1,-87.56,114.42,-92.29
,,0,2025-11-18T17:46:42.781Z,14.96,6.74,-12.6,4.4,155.36,-52.79,104.29,-102.34
,,0,2025-11-18T17:46:42.791Z,13.62,6.82,-10.89,4.53,153.85,-32.84,99.35,-112.79
,,0,2025-11-18T17:46:42.801Z,12.16,6.2,-9.33,4.72,141.87,-19.5,98.19,-100.53
,,0,2025-11-18T17:46:42.811Z,11.6,5.73,-8.55,5.35,128.61,-6.8,91.42,-90.21
,,0,2025-11-18T17:46:42.821Z,11.79,5.74,-8.56,5.72,127.49,6.59,83.54,-96.08
,,0,2025-11-18T17:46:42.831Z,11.73,5.92,-8.04,6.16,126.92,11.77,77.8,-99.59
,,0,2025-11-18T17:46:42.841Z,11.09,5.88,-6.38,6.91,117.48,2.57,76.55,-89.08
,,0,2025-11-18T17:46:42.851Z,10.32,5.57,-4.99,7.1,114.37,-19.69,75.01,-84.07
,,0,2025-11-18T17:46:42.861Z,10.09,5.34,-5.07,6.89,119.82,-43.92,74.51,-82.92
,,0,2025-11-18T17:46:42.871Z,9.86,5.01,-5.68,6.31,122.09,-57.11,74.68,-77.9
,,0,2025-11-18T17:46:42.881Z,9.9,4.17,-6.69,5.99,118.73,-54.37,71.24,-77.89
,,0,2025-11-18T17:46:42.891Z,10.02,3.62,-7.46,5.62,112.49,-45.04,61.73,-82.55
,,0,2025-11-18T17:46:42.901Z,10.27,3.56,-7.74,5.74,105.25,-29.66,51.69,-86.75
,,0,2025-11-18T17:46:42.911Z,10.01,3.86,-7.19,5.8,99.43,-19.4,42.47,-87.79
,,0,2025-11-18T17:46:42.921Z,9.75,4.74,-6.36,5.67,94.11,-16.92,41.15,-82.93
,,0,2025-11-18T17:46:42.931Z,9.11,4.15,-5.67,5.79,83.35,-16.63,35.73,-73.45
,,0,2025-11-18T17:46:42.941Z,9.18,5.04,-4.92,5.89,95.99,-26.86,37.47,-84.19
,,0,2025-11-18T17:46:42.951Z,9.79,5.84,-5.02,6.04,112.67,-39.02,47.79,-94.27
,,0,2025-11-18T17:46:42.961Z,9.71,5.67,-4.86,6.2,116.12,-47.89,55.18,-90.25
,,0,2025-11-18T17:46:42.971Z,9.3,5.22,-4.22,6.44,115.48,-59.36,56.55,-81.33
,,0,2025-11-18T17:46:42.981Z,9.13,5.14,-3.86,6.49,119.37,-73.96,54.34,-76.33
,,0,2025-11-18T17:46:42.991Z,9.24,5.4,-3.84,6.44,127.97,-92.44,53.4,-70.57
,,0,2025-11-18T17:46:43.001Z,9.74,5.83,-4.23,6.56,137.42,-105.5,56.54,-67.51
,,0,2025-11-18T17:46:43.011Z,10.48,5.95,-5.52,6.63,143.14,-110.9,61.22,-66.64
,,0,2025-11-18T17:46:43.021Z,11.38,5.84,-7.11,6.7,137.06,-101.34,64.63,-65.86
,,0,2025-11-18T17:46:43.031Z,11.74,5.61,-8.12,6.35,123.88,-85.13,62.41,-64.83
,,0,2025-11-18T17:46:43.041Z,11.73,5.58,-8.29,6.13,106.68,-68.31,55.96,-59.85
,,0,2025-11-18T17:46:43.051Z,10.71,5.77,-6.83,5.89,99.25,-61.53,53.55,-56.55
,,0,2025-11-18T17:46:43.061Z,9.84,6.08,-5.37,5.57,101.46,-63.91,55.02,-56.42
,,0,2025-11-18T17:46:43.071Z,9.48,6.44,-4.73,5.12,109.32,-72.7,59.37,-56.04
,,0,2025-11-18T17:46:43.081Z,9.23,6.47,-4.41,4.89,122.46,-86.69,65.42,-56.58
,,0,2025-11-18T17:46:43.091Z,8.31,5.9,-3.82,4.45,131.59,-103.4,65.37,-48.47
,,0,2025-11-18T17:46:43.101Z,7.79,5.64,-3.38,4.18,148.39,-127.88,61.6,-43.28
,,0,2025-11-18T17:46:43.111Z,7.89,5.63,-3.46,4.32,163.15,-147.91,59.3,-35.02
,,0,2025-11-18T17:46:43.121Z,8.49,5.95,-4.22,4.35,172.1,-158.62,54.5,-38.57
,,0,2025-11-18T17:46:43.131Z,9.1,6.5,-4.85,4.13,176.8,-163.02,53.65,-42.48
,,0,2025-11-18T17:46:43.141Z,9.35,6.58,-5.41,3.85,172.83,-157.52,56.06,-43.78
,,0,2025-11-18T17:46:43.151Z,9.08,6.3,-5.55,3.46,167.68,-150.26,58.18,-46.42
,,0,2025-11-18T17:46:43.161Z,8.83,6,-5.69,3.11,162.07,-143.28,58.2,-48.48
,,0,2025-11-18T17:46:43.171Z,8.8,5.87,-5.85,2.95,156.05,-135.91,56.56,-51.79
,,0,2025-11-18T17:46:43.181Z,9.43,5.78,-6.82,2.98,146.77,-125.11,58.34,-49.86
,,0,2025-11-18T17:46:43.191Z,8.4,5.05,-6.13,2.75,133.13,-112.15,48.21,-53.12
,,0,2025-11-18T17:46:43.201Z,7.26,5.03,-4.66,2.39,132.36,-111.94,35.55,-61.02
,,0,2025-11-18T17:46:43.211Z,6.88,5.44,-3.58,2.23,144.84,-126.83,28.34,-63.94
,,0,2025-11-18T17:46:43.221Z,7.04,6.05,-2.95,2.08,161.82,-147.48,27.07,-60.85
,,0,2025-11-18T17:46:43.231Z,7.25,6.51,-2.79,1.55,180.85,-166.49,27.59,-65.03
,,0,2025-11-18T17:46:43.241Z,7.74,7.08,-2.94,1.06,204.54,-190.8,32.25,-66.25
,,0,2025-11-18T17:46:43.251Z,7.96,7.14,-3.47,0.59,222.75,-209.02,39.22,-66.27
,,0,2025-11-18T17:46:43.261Z,8.6,7.28,-4.54,0.7,230.22,-214.6,44.06,-70.76
,,0,2025-11-18T17:46:43.271Z,9.29,7.09,-5.97,0.7,226.36,-207.44,46.21,-77.9
,,0,2025-11-18T17:46:43.281Z,8.92,6.96,-5.55,0.37,219.22,-195.76,44.18,-88.23
,,0,2025-11-18T17:46:43.291Z,8.27,7.28,-3.91,0.03,215.82,-187.44,41.29,-98.7
,,0,2025-11-18T17:46:43.301Z,8.62,7.9,-3.46,-0.01,215.73,-185.44,39.69,-102.84
,,0,2025-11-18T17:46:43.311Z,8.67,7.65,-4.07,-0.22,204.89,-184.33,27.5,-85.14
,,0,2025-11-18T17:46:43.321Z,10.62,9.31,-5.06,-0.69,214.19,-187.81,19.47,-101.13
,,0,2025-11-18T17:46:43.331Z,12.76,11.17,-6.02,-1.31,222.87,-184.03,18.98,-124.27
,,0,2025-11-18T17:46:43.341Z,14.12,12.74,-5.67,-2.17,231.36,-183.29,27.71,-138.44
,,0,2025-11-18T17:46:43.351Z,14.45,13.29,-4.81,-3.02,241.8,-187.08,40.24,-147.81
,,0,2025-11-18T17:46:43.361Z,14.87,13.53,-5.09,-3.48,260.3,-199.33,55.76,-157.85
,,0,2025-11-18T17:46:43.661Z,15.37,8.15,-13.02,-0.63,242.02,-172.87,112.11,126.96
,,0,2025-11-18T17:46:43.669Z,15.75,8.58,-13.21,-0.18,206.75,-122.87,107.82,126.57
,,0,2025-11-18T17:46:43.679Z,14.9,9.13,-11.77,0.13,187.92,-82.76,109.67,128.21
,,0,2025-11-18T17:46:43.689Z,13.97,9.45,-10.28,0.26,178.92,-57.48,111.09,127.93
,,0,2025-11-18T17:46:43.699Z,13.34,9.73,-9.11,0.56,185.17,-49.5,117.16,134.57
,,0,2025-11-18T17:46:43.709Z,12.47,9.66,-7.84,0.77,199.18,-55.29,128.73,141.59
,,0,2025-11-18T17:46:43.719Z,11.75,8.85,-7.66,1.02,199.43,-54.91,131.08,139.91
,,0,2025-11-18T17:46:43.729Z,11.89,8.65,-8.01,1.51,203.13,-56.21,135.73,140.28
,,0,2025-11-18T17:46:43.739Z,11.61,8.56,-7.65,1.68,208.3,-58.34,140.93,141.86
,,0,2025-11-18T17:46:43.749Z,11.09,8.39,-7.06,1.65,213.82,-61.23,145.77,143.95
,,0,2025-11-18T17:46:43.759Z,10.89,8.19,-6.94,1.83,219.48,-61.96,149.44,148.34
,,0,2025-11-18T17:46:43.769Z,11.21,7.9,-7.69,2.04,220.57,-57.17,149.73,151.54
,,0,2025-11-18T17:46:43.779Z,11.91,8.03,-8.58,1.92,219.79,-46.47,150.67,153.13
,,0,2025-11-18T17:46:43.789Z,11.82,8.07,-8.53,1.38,217.32,-33.34,151.9,151.79
,,0,2025-11-18T17:46:43.799Z,11.7,7.86,-8.58,1.24,216.37,-22.82,154.18,150.08
,,0,2025-11-18T17:46:43.809Z,11.41,7.5,-8.53,1.13,213.14,-13.55,153.84,146.9
,,0,2025-11-18T17:46:43.819Z,11.11,7.08,-8.51,0.92,209.71,-2.08,151.71,144.77
,,0,2025-11-18T17:46:43.829Z,11.09,7.26,-8.26,1.43,209.57,9.87,150.91,145.08
,,0,2025-11-18T17:46:43.839Z,10.94,7.07,-8.19,1.62,207.58,14.69,149.5,143.26
,,0,2025-11-18T17:46:43.849Z,10.75,6.99,-8.02,1.51,204.68,21.79,147.54,140.18
,,0,2025-11-18T17:46:43.859Z,10.81,6.89,-8.16,1.67,203.42,23.85,147.5,138.03
,,0,2025-11-18T17:46:43.869Z,9.99,6.25,-7.64,1.48,201.67,21.63,146.58,136.82
,,0,2025-11-18T17:46:43.879Z,9.38,5.63,-7.37,1.39,197.64,22.14,142.99,134.63
,,0,2025-11-18T17:46:43.889Z,9.56,5.3,-7.79,1.57,194.91,19.82,138.04,136.18
,,0,2025-11-18T17:46:43.899Z,10.2,4.96,-8.61,2.32,190.84,22.86,134.46,133.48
,,0,2025-11-18T17:46:43.909Z,9.78,4.84,-8.21,2.18,190.89,24.18,134.02,133.76
,,0,2025-11-18T17:46:43.919Z,9,4.15,-7.57,2.53,188.69,26.36,131.68,132.56
,,0,2025-11-18T17:46:43.929Z,8.76,3.61,-7.49,2.74,185.14,21.82,126.39,133.52
,,0,2025-11-18T17:46:43.939Z,8.57,3.55,-7.24,2.9,182.19,21.43,123.32,132.38
,,0,2025-11-18T17:46:43.949Z,8.61,3.02,-7.54,2.86,179.37,22.63,119.69,131.66
,,0,2025-11-18T17:46:43.959Z,8.97,2.94,-7.91,3.03,178.47,25.24,118.53,131.02
,,0,2025-11-18T17:46:43.969Z,8.99,2.73,-7.97,3.16,176.9,25.69,116.84,130.31
,,0,2025-11-18T17:46:43.979Z,8.02,2.06,-7.23,2.8,173.55,22.61,113.86,129.01
,,0,2025-11-18T17:46:43.989Z,7.68,1.58,-6.95,2.86,167.63,23.15,110.37,124.02
,,0,2025-11-18T17:46:43.999Z,8.36,1.28,-7.67,3.09,164.31,23.47,107.87,121.69
,,0,2025-11-18T17:46:44.009Z,8.7,0.84,-8,3.31,161.72,20.87,105.26,120.98
,,0,2025-11-18T17:46:44.019Z,8.24,0.3,-7.52,3.36,156.75,18.25,101.47,118.07
,,0,2025-11-18T17:46:44.029Z,8.21,-0.19,-7.58,3.15,149.21,21.7,95.27,112.76
,,0,2025-11-18T17:46:44.039Z,9.02,-0.72,-8.35,3.35,143.25,29.76,90.51,106.97
,,0,2025-11-18T17:46:44.049Z,9.11,-1.1,-8.33,3.54,139.04,41.4,86.08,101.04
,,0,2025-11-18T17:46:44.059Z,8.21,-1.67,-7.25,3.47,137.26,36.92,83.48,102.51
,,0,2025-11-18T17:46:44.069Z,8.69,-2.32,-7.54,3.64,132.78,34.13,79.4,100.8
,,0,2025-11-18T17:46:44.079Z,10.05,-2.49,-8.73,4.3,131.74,35.29,77.82,100.27
,,0,2025-11-18T17:46:44.089Z,10.62,-2.93,-9.11,4.59,128.33,37.29,74.63,97.5
,,0,2025-11-18T17:46:44.099Z,10.61,-3.37,-8.8,4.86,127.29,37.84,72.44,97.59
,,0,2025-11-18T17:46:44.109Z,10.94,-3.82,-8.83,5.21,124.48,34.16,69.59,97.4
,,0,2025-11-18T17:46:44.119Z,11.35,-4.72,-8.77,5.45,121.98,34.73,67.05,95.79
,,0,2025-11-18T17:46:44.129Z,12.1,-5,-9.52,5.55,122.91,40.87,65.32,95.76
,,0,2025-11-18T17:46:44.139Z,12.62,-5.69,-9.64,5.82,122.68,43.02,59.75,98.13
,,0,2025-11-18T17:46:44.149Z,13.09,-5.28,-10.37,6,125.94,43.34,61.6,100.93
,,0,2025-11-18T17:46:44.159Z,13.03,-5.59,-10.22,5.83,128.43,51.64,61.57,100.18
,,0,2025-11-18T17:46:44.169Z,13.42,-6.02,-10.33,6.1,132.58,54.62,62.86,103.17
,,0,2025-11-18T17:46:44.179Z,13.23,-6.29,-9.95,6.05,135.51,48.97,63.95,108.97
,,0,2025-11-18T17:46:44.189Z,13.55,-6.87,-10.13,5.81,135.33,43.82,64.51,110.6
,,0,2025-11-18T17:46:44.199Z,14.15,-7.16,-10.68,5.88,135.55,44.31,63.98,110.98
,,0,2025-11-18T17:46:44.209Z,14.43,-7.58,-10.86,5.75,137.9,52.86,60.95,111.84
,,0,2025-11-18T17:46:44.219Z,14.2,-7.8,-10.33,5.82,143.24,54.61,60.87,117.6
,,0,2025-11-18T17:46:44.229Z,14.48,-8.36,-10.19,6.01,144.75,51.88,59.95,121.11
,,0,2025-11-18T17:46:44.239Z,14.42,-8.75,-9.79,5.97,147.48,47.5,59.92,126.11
,,0,2025-11-18T17:46:44.249Z,14.52,-9.12,-9.55,6.04,149.41,39.37,60.57,130.79
,,0,2025-11-18T17:46:44.259Z,14.8,-9.65,-9.34,6.23,154.98,34.6,61.29,138.08
,,0,2025-11-18T17:46:44.269Z,15.38,-10.05,-9.61,6.56,159.96,30.53,61.21,144.6
,,0,2025-11-18T17:46:44.279Z,15.51,-10.36,-9.53,6.49,163.69,27.47,60.35,149.66
,,0,2025-11-18T17:46:44.289Z,15.33,-10.61,-9.15,6.22,169.62,20.9,60.38,157.12
,,0,2025-11-18T17:46:44.299Z,15.68,-10.89,-9.36,6.29,175.32,14.55,61.63,163.48
,,0,2025-11-18T17:46:44.309Z,15.58,-11.2,-9.13,5.82,181.09,5.99,63.15,169.62
,,0,2025-11-18T17:46:44.319Z,15.74,-11.68,-8.98,5.54,189.48,-5.37,66.37,177.4
,,0,2025-11-18T17:46:44.329Z,15.9,-12.04,-8.97,5.23,199.68,-15.02,69.79,186.49
,,0,2025-11-18T17:46:44.339Z,15.91,-12.22,-8.85,5.04,213.73,-29.56,73.95,198.34
,,0,2025-11-18T17:46:44.349Z,16.47,-13.03,-8.92,4.67,223.95,-40.53,74.89,207.13
,,0,2025-11-18T17:46:44.359Z,16.53,-13.35,-9.12,3.42,235.67,-54.21,81.05,214.56
,,0,2025-11-18T17:46:44.369Z,16.59,-13.74,-8.6,3.52,250.79,-75.18,84.86,223.69
,,0,2025-11-18T17:46:44.379Z,16.97,-13.89,-9.27,3.01,265.27,-91.95,88.14,232.69
,,0,2025-11-18T17:46:44.389Z,17.16,-14.52,-8.84,2.39,277.44,-105.39,89.69,240.46
,,0,2025-11-18T17:46:44.399Z,17.65,-14.97,-9.18,1.82,287.22,-114.81,89.72,247.52
,,0,2025-11-18T17:46:44.409Z,18.04,-15.61,-9,0.83,296.07,-129.37,91.42,250.13
,,0,2025-11-18T17:46:44.419Z,19.38,-16.88,-9.51,0.01,301.58,-142.69,89.57,250.13
,,0,2025-11-18T17:46:44.429Z,20.53,-18,-9.83,-0.9,306.55,-154.4,87.02,250.13
,,0,2025-11-18T17:46:44.439Z,21.59,-18.95,-10.25,-1.39,309.95,-163.25,82.77,250.13
,,0,2025-11-18T17:46:44.449Z,22.65,-18.81,-12.5,-1.72,305.99,-158.77,76.52,250.13
,,0,2025-11-18T17:46:44.459Z,22.56,-19.62,-10.82,-2.67,313.24,-170.12,81.33,250.13
,,0,2025-11-18T17:46:44.469Z,21.91,-19.45,-8.99,-4.55,326.15,-194.95,76.17,250.13
,,0,2025-11-18T17:46:44.479Z,21.91,-18.34,-11.25,-4.16,335.7,-211.45,73.62,250.13
,,0,2025-11-18T17:46:44.489Z,23.15,-18.5,-12.9,-5.25,333.99,-211.34,65.71,250.13
,,0,2025-11-18T17:46:44.499Z,22.63,-17.91,-12.38,-6.19,336.06,-216.79,58.06,250.13
,,0,2025-11-18T17:46:44.509Z,21.74,-16.92,-11.64,-7.12,344.42,-231.07,51.67,250.13
,,0,2025-11-18T17:46:44.519Z,20.76,-15.51,-11.29,-7.93,357.6,-250.14,52.35,250.13
,,0,2025-11-18T17:46:44.529Z,19.54,-14.21,-10.29,-8.6,358.23,-250.14,56.55,250.13
,,0,2025-11-18T17:46:44.539Z,18.19,-12.65,-9.02,-9.47,359.61,-250.14,64.72,250.13
,,0,2025-11-18T17:46:44.549Z,17.38,-11.4,-8.23,-10.22,359.74,-250.14,65.44,250.13
,,0,2025-11-18T17:46:44.559Z,17.11,-10.41,-8.05,-10.93,358.82,-250.14,60.13,250.13
,,0,2025-11-18T17:46:44.569Z,16.72,-8.61,-7.65,-12.12,358.16,-250.14,56.08,250.13
,,0,2025-11-18T17:46:44.579Z,16.39,-6.06,-6.25,-13.89,354.59,-250.14,59.91,244.08
,,0,2025-11-18T17:46:44.589Z,16.39,-3.53,-6.15,-14.78,340.32,-250.14,70.79,219.63
,,0,2025-11-18T17:46:44.599Z,18.22,-1.23,3.05,-17.92,331.89,-250.14,82.44,201.96
,,0,2025-11-18T17:46:44.609Z,19.7,-0.03,-1.8,-19.62,313.92,-250.14,84.8,169.66
,,0,2025-11-18T17:46:44.619Z,20.18,4.74,-0.03,-19.62,297.84,-250.14,87.4,136.01
,,0,2025-11-18T17:46:44.629Z,21.32,8.33,-0.4,-19.62,276.47,-250.14,76.7,89.34
,,0,2025-11-18T17:46:44.639Z,23.39,12.73,-0.23,-19.62,260.65,-250.14,63.16,37.18
,,0,2025-11-18T17:46:44.649Z,26.72,17.96,2.55,-19.62,255.41,-250.14,46.38,-22.68
,,0,2025-11-18T17:46:44.659Z,28.26,19.62,5.39,-19.62,265.78,-250.14,10.76,-89.19
,,0,2025-11-18T17:46:44.669Z,28.33,19.62,5.73,-19.62,301.72,-250.14,-36.82,-164.65
,,0,2025-11-18T17:46:44.679Z,28.53,19.62,6.66,-19.62,365.95,-250.14,-93.69,-250.14
,,0,2025-11-18T17:46:44.689Z,28.44,19.62,6.24,-19.62,389.23,-250.14,-162.37,-250.14
,,0,2025-11-18T17:46:44.699Z,28.48,19.62,6.43,-19.62,423.3,-250.14,-232.47,-250.14
,,0,2025-11-18T17:46:44.709Z,28,19.62,3.78,-19.62,433.25,-250.14,-250.14,-250.14
,,0,2025-11-18T17:46:44.719Z,27.78,19.62,-1.27,-19.62,433.25,-250.14,-250.14,-250.14
,,0,2025-11-18T17:46:44.729Z,28.99,19.62,-8.38,-19.62,433.25,-250.14,-250.14,-250.14
,,0,2025-11-18T17:46:44.739Z,28.76,19.62,-14.5,-15.23,433.25,-250.14,-250.14,-250.14
,,0,2025-11-18T17:46:44.749Z,29.36,19.62,-19.62,-9.58,414.73,-216.47,-250.14,-250.14
,,0,2025-11-18T17:46:44.759Z,28.5,19.62,-19.62,-6.51,388.12,-159.68,-250.14,-250.14
,,0,2025-11-18T17:46:44.769Z,28.57,19.62,-19.62,-6.83,377.9,-132.92,-250.14,-250.14
,,0,2025-11-18T17:46:44.779Z,28.83,19.62,-18,-11.05,387.09,-157.16,-250.14,-250.14
,,0,2025-11-18T17:46:44.789Z,30.45,19.62,-16.54,-16.4,390.78,-166.05,-250.14,-250.14
,,0,2025-11-18T17:46:44.799Z,32.84,19.62,-17.57,-19.62,373.73,-120.56,-250.14,-250.14
,,0,2025-11-18T17:46:44.809Z,31.88,19.62,-15.7,-19.62,353.76,2.89,-250.14,-250.14
,,0,2025-11-18T17:46:44.819Z,30.25,19.62,-12.05,-19.62,384.84,151.54,-250.14,-250.14
,,0,2025-11-18T17:46:44.829Z,33.98,19.62,-19.62,-19.62,433.25,250.13,-250.14,-250.14
,,0,2025-11-18T17:46:44.839Z,33.98,19.62,-19.62,-19.62,433.25,250.13,-250.14,-250.14
,,0,2025-11-18T17:46:44.849Z,28.66,19.62,-7.19,-19.62,433.25,250.13,-250.14,-250.14
,,0,2025-11-18T17:46:44.859Z,27.93,19.62,3.2,-19.62,433.25,250.13,-250.14,-250.14
,,0,2025-11-18T17:46:44.869Z,30.43,19.62,12.49,-19.62,433.25,250.13,-250.14,-250.14
,,0,2025-11-18T17:46:44.879Z,31.19,19.62,14.24,-19.62,389.06,250.13,-250.14,-161.97
,,0,2025-11-18T17:46:44.889Z,29.73,19.62,10.69,-19.62,353.85,250.13,-250.14,-8.63
,,0,2025-11-18T17:46:44.899Z,28.71,19.62,7.38,-19.62,367.01,250.13,-250.14,97.78
,,0,2025-11-18T17:46:44.909Z,29.68,19.62,10.55,-19.62,386.21,250.13,-250.14,155
,,0,2025-11-18T17:46:44.919Z,31.26,19.62,14.39,-19.62,413.71,250.13,-250.14,214.53
,,0,2025-11-18T17:46:44.929Z,31.41,19.62,14.73,-19.62,433.24,250.13,-250.14,250.13
,,0,2025-11-18T17:46:44.939Z,30.76,19.62,13.29,-19.62,433.24,250.13,-250.14,250.13
,,0,2025-11-18T17:46:44.949Z,30.27,19.62,12.1,-19.62,433.24,250.13,-250.14,250.13
,,0,2025-11-18T17:46:44.959Z,29.62,19.62,10.36,-19.62,418.21,250.13,-223.09,250.13
,,0,2025-11-18T17:46:44.969Z,28.99,19.62,8.39,-19.62,397.64,250.13,-183.38,248.85
,,0,2025-11-18T17:46:44.979Z,29.28,19.62,9.35,-19.62,377.2,250.13,-155.02,235.98
,,0,2025-11-18T17:46:44.989Z,29.92,19.62,11.2,-19.62,367.18,250.13,-137.44,231.02
,,0,2025-11-18T17:46:44.999Z,30.23,19.62,11.99,-19.62,359.15,250.13,-125.62,225.04
,,0,2025-11-18T17:46:45.009Z,28.86,19.62,11.23,-17.93,353.24,250.13,-112.47,222.63
,,0,2025-11-18T17:46:45.019Z,27.02,19.62,9.83,-15.77,341.82,244.41,-98.54,217.7
,,0,2025-11-18T17:46:45.029Z,25.43,19.62,7.73,-14.22,314.03,220.42,-81.4,208.34
,,0,2025-11-18T17:46:45.039Z,23.78,19.62,4.9,-12.51,309.17,204.97,-75.6,218.77
,,0,2025-11-18T17:46:45.049Z,22.8,19.62,3.33,-11.12,291.71,196.76,-66.35,204.89
,,0,2025-11-18T17:46:45.059Z,22.25,19.62,3.22,-9.99,263.09,182.27,-41.91,185.02
,,0,2025-11-18T17:46:45.069Z,21.77,19.62,3.81,-8.63,237.54,161.32,-9.18,174.11
,,0,2025-11-18T17:46:45.079Z,21.19,19.62,3.73,-7.09,217.5,133.7,15.55,170.84
,,0,2025-11-18T17:46:45.089Z,20.67,19.62,2.62,-5.94,205.18,107.72,29.24,172.17
,,0,2025-11-18T17:46:45.099Z,20.37,19.62,2.02,-5.09,187.95,87.56,22.21,164.82
,,0,2025-11-18T17:46:45.109Z,18.11,17.48,0.05,-4.74,156.57,66.33,17.36,140.76
,,0,2025-11-18T17:46:45.119Z,15.91,15.42,-0.14,-3.91,148.93,52.05,-0.56,139.53
,,0,2025-11-18T17:46:45.129Z,15.33,14.8,-1.57,-3.66,144.41,46.83,-11.97,136.08
,,0,2025-11-18T17:46:45.139Z,15.59,14.82,-3.26,-3.59,138.05,51.6,-5.89,127.91
,,0,2025-11-18T17:46:45.149Z,16.2,15.34,-4.13,-3.16,123.81,57.66,17.39,108.18
,,0,2025-11-18T17:46:45.159Z,15.32,14.36,-4.27,-3.22,119.52,62.73,50.16,88.52
,,0,2025-11-18T17:46:45.169Z,13.58,12.73,-3.98,-2.51,121.82,65.41,74.73,70.56
,,0,2025-11-18T17:46:45.179Z,11.28,10.21,-4.44,-1.86,120.69,69.21,79.63,58.61
,,0,2025-11-18T17:46:45.189Z,9.54,7.97,-5.17,-0.86,110.22,76.05,63.72,48
,,0,2025-11-18T17:46:45.199Z,8.86,6.83,-5.61,-0.54,89.97,75.69,38.37,29.88
,,0,2025-11-18T17:46:45.209Z,8.69,6.69,-5.52,-0.56,75.75,72.3,21.37,7.34
,,0,2025-11-18T17:46:45.219Z,8.49,6.69,-5.17,-0.75,67.82,66.08,13.63,-6.95
,,0,2025-11-18T17:46:45.229Z,8.41,6.89,-4.74,-0.85,62.51,58.82,16.94,-12.67
,,0,2025-11-18T17:46:45.239Z,8.01,6.62,-4.47,-0.68,55.51,47.2,26.23,-12.87
,,0,2025-11-18T17:46:45.249Z,7.61,6.27,-4.28,-0.45,57.63,38.04,36.67,-23.01
,,0,2025-11-18T17:46:45.259Z,7.27,5.53,-4.72,0.07,61.27,32.36,45.07,-26
,,0,2025-11-18T17:46:45.269Z,7.11,4.6,-5.42,0.28,59.05,26.44,47.37,-23.33
,,0,2025-11-18T17:46:45.279Z,6.94,4.03,-5.62,0.51,57.3,18.69,47.46,-26.11
,,0,2025-11-18T17:46:45.289Z,6.54,3.44,-5.54,0.58,57.09,13.5,45.02,-32.42
,,0,2025-11-18T17:46:45.299Z,6.13,3.09,-5.26,0.61,58.27,15.86,43.3,-35.63
,,0,2025-11-18T17:46:45.309Z,5.72,2.64,-5.04,0.63,58.56,22.5,41.28,-34.92
,,0,2025-11-18T17:46:45.319Z,5.8,2.38,-5.2,1.02,62.86,29.44,41.39,-37.04
,,0,2025-11-18T17:46:45.329Z,6.15,1.92,-5.8,0.68,69.1,35.54,39.04,-44.58
,,0,2025-11-18T17:46:45.339Z,6.52,1.66,-6.27,0.61,75.05,42.39,38.53,-48.49
,,0,2025-11-18T17:46:45.349Z,6.42,1.55,-6.18,0.8,77.36,48.43,36.29,-48.2
,,0,2025-11-18T17:46:45.359Z,6.25,1.71,-5.91,1.11,73.8,46.36,36.83,-44.05
,,0,2025-11-18T17:46:45.369Z,5.87,1.65,-5.45,1.44,68.99,40.05,38.35,-41.05
,,0,2025-11-18T17:46:45.379Z,5.8,1.47,-5.34,1.73,66.08,32.27,40.63,-40.93
,,0,2025-11-18T17:46:45.389Z,5.87,1.09,-5.5,1.74,64.01,30.08,39.26,-40.63
,,0,2025-11-18T17:46:45.399Z,6.26,0.97,-5.82,2.07,63.29,31.67,37.4,-40.05
,,0,2025-11-18T17:46:45.409Z,6.83,0.78,-6.43,2.18,69.29,43.37,34.45,-41.63
,,0,2025-11-18T17:46:45.419Z,7.33,0.89,-6.96,2.12,70.76,50.39,30.53,-39.19
,,0,2025-11-18T17:46:45.429Z,7.02,1.08,-6.62,2.07,70.3,53.58,31.95,-32.4
,,0,2025-11-18T17:46:45.439Z,6.49,0.79,-6.1,2.05,67.97,52.41,34.69,-25.87
,,0,2025-11-18T17:46:45.449Z,6.51,0.44,-6.1,2.24,61.46,45.68,35.54,-20.67
,,0,2025-11-18T17:46:45.459Z,7.17,0.13,-6.67,2.62,55.87,41.11,33.09,-18.34
,,0,2025-11-18T17:46:45.469Z,8.47,0.22,-7.92,3,57.53,46.32,27.46,-20.26
,,0,2025-11-18T17:46:45.479Z,9.7,0.27,-9.39,2.4,71.22,63.96,13.68,-28.18
,,0,2025-11-18T17:46:45.489Z,10.58,1.41,-10.27,2.11,88.99,80.82,5.08,-36.88
,,0,2025-11-18T17:46:45.499Z,10.75,2.78,-10.15,2.19,103.36,93.53,2.79,-43.92
,,0,2025-11-18T17:46:45.509Z,10.69,3.84,-9.74,2.16,110.4,96.31,9.47,-53.14
,,0,2025-11-18T17:46:45.519Z,10.97,4.74,-9.36,3.2,107.73,84.42,19.54,-64.02
,,0,2025-11-18T17:46:45.529Z,11.14,5.03,-9.36,3.36,94.96,64.27,28.5,-63.82
,,0,2025-11-18T17:46:45.539Z,11.02,4.92,-9.26,3.38,82.28,43.73,34.82,-60.38
,,0,2025-11-18T17:46:45.549Z,11.34,4.93,-9.62,3.42,70.6,23.4,37.69,-54.92
,,0,2025-11-18T17:46:45.559Z,12.45,5.2,-10.89,3.08,68.51,15.15,37.85,-55.05
,,0,2025-11-18T17:46:45.569Z,14.8,6,-13.27,2.62,70.48,18.85,38.3,-56.08
,,0,2025-11-18T17:46:45.579Z,15.37,5.53,-14.16,2.28,70.4,33.76,33.6,-51.85
,,0,2025-11-18T17:46:45.589Z,14.25,5.74,-12.88,2.03,74.76,39.66,31.41,-55.03
,,0,2025-11-18T17:46:45.599Z,14.11,7.26,-11.99,1.65,90.05,31.31,38.76,-75.01
,,0,2025-11-18T17:46:45.61Z,14.2,7.25,-12.12,1.52,91.92,22.51,47.6,-75.34
,,0,2025-11-18T17:46:45.619Z,13.56,6.66,-11.71,1.57,84.2,13.15,51.22,-65.52
,,0,2025-11-18T17:46:45.629Z,13.21,6.56,-11.35,1.63,83.9,-0.08,53.09,-64.96
,,0,2025-11-18T17:46:45.639Z,13.01,6.81,-11.01,1.33,90.92,-18.04,59.53,-66.31
,,0,2025-11-18T17:46:45.649Z,12.65,6.84,-10.54,1.43,101.91,-34.56,69.08,-66.47
,,0,2025-11-18T17:46:45.659Z,12.56,6.51,-10.63,1.52,112.75,-44.46,77.15,-69.18
,,0,2025-11-18T17:46:45.858Z,7.84,4.03,-6.71,0.47,172.15,-82.57,114.79,-98.18
,,0,2025-11-18T17:46:45.867Z,7.49,3.93,-6.36,0.39,176.1,-89.44,117.18,-96.34
,,0,2025-11-18T17:46:45.877Z,7.54,3.88,-6.45,0.2,181.47,-98.95,119.47,-94.16
,,0,2025-11-18T17:46:45.887Z,8.07,3.9,-7.07,0.02,185.38,-103.53,121.58,-94.16
,,0,2025-11-18T17:46:45.897Z,8.94,3.69,-8.14,-0.13,182.82,-96.27,121.31,-97.16
,,0,2025-11-18T17:46:45.907Z,9.54,3.56,-8.85,-0.24,179.45,-89.68,119.16,-99.81
,,0,2025-11-18T17:46:45.917Z,9.18,3.68,-8.41,-0.07,177.15,-86.07,117.31,-101.05
,,0,2025-11-18T17:46:45.927Z,8.43,3.83,-7.51,0.1,180.4,-90.47,117.82,-102.35
,,0,2025-11-18T17:46:45.937Z,8.02,4.02,-6.94,0.05,186.84,-102.21,119.41,-101.01
,,0,2025-11-18T17:46:45.947Z,8,4.25,-6.77,0.39,195.12,-115.21,122.37,-99.12
,,0,2025-11-18T17:46:45.957Z,8.51,4.3,-7.33,0.58,200.37,-122.54,122.98,-100.04
,,0,2025-11-18T17:46:45.967Z,9.22,4.19,-8.13,1.08,195.61,-119.66,120.21,-97.42
,,0,2025-11-18T17:46:45.977Z,9.99,4.42,-8.89,1.09,191.26,-112.73,114.36,-103.91
,,0,2025-11-18T17:46:45.987Z,10.49,4.84,-9.2,1.4,188.99,-109.13,110.6,-107.59
,,0,2025-11-18T17:46:45.997Z,10.39,5.1,-8.9,1.65,186.65,-108.59,106.59,-108.1
,,0,2025-11-18T17:46:46.007Z,10.3,5.32,-8.62,1.86,188.13,-113.43,102.37,-109.76
,,0,2025-11-18T17:46:46.017Z,10.75,5.76,-8.79,2.28,191.54,-120.56,99.39,-110.79
,,0,2025-11-18T17:46:46.027Z,11.6,6.18,-9.43,2.71,193.15,-126.38,94.76,-111.16
,,0,2025-11-18T17:46:46.037Z,12.63,6.69,-10.29,2.95,194.86,-132.24,88.93,-112.13
,,0,2025-11-18T17:46:46.047Z,13.28,7.44,-10.53,3.2,197.64,-138.78,86.31,-111.15
,,0,2025-11-18T17:46:46.057Z,13.64,8.22,-10.36,3.33,198.31,-140.4,87.7,-109.2
,,0,2025-11-18T17:46:46.067Z,13.45,8.57,-9.89,3.14,201.57,-143.24,93.11,-106.98
,,0,2025-11-18T17:46:46.077Z,12.63,8.56,-8.84,2.85,206.08,-145.07,100.97,-105.98
,,0,2025-11-18T17:46:46.087Z,11.7,8.17,-8,2.5,210.86,-150.08,106.85,-102.57
,,0,2025-11-18T17:46:46.097Z,10.83,7.64,-7.35,2.21,213.84,-157.45,107.76,-96.58
,,0,2025-11-18T17:46:46.107Z,10.43,7.46,-6.97,2.13,217.8,-167.42,105.27,-91.23
,,0,2025-11-18T17:46:46.117Z,10.76,7.49,-7.35,2.37,222.3,-177.47,101.66,-87.11
,,0,2025-11-18T17:46:46.127Z,11.35,7.56,-7.96,2.89,224.41,-183.92,97.84,-83.43
,,0,2025-11-18T17:46:46.137Z,12.01,7.6,-8.66,3.4,220.9,-183.11,93.5,-80.77
,,0,2025-11-18T17:46:46.147Z,12.55,7.45,-9.25,4.06,208.77,-171.72,88.68,-78.95
,,0,2025-11-18T17:46:46.157Z,12.81,7.24,-9.63,4.35,193.33,-157.6,81.35,-76.95
,,0,2025-11-18T17:46:46.167Z,12.81,7.08,-9.61,4.66,175.67,-139.92,74.98,-75.23
,,0,2025-11-18T17:46:46.177Z,12.63,6.85,-9.52,4.69,158.67,-122.93,67.23,-74.46
,,0,2025-11-18T17:46:46.187Z,12.16,6.88,-8.87,4.66,146.76,-112.42,61.5,-71.54
,,0,2025-11-18T17:46:46.197Z,11.32,6.95,-7.69,4.54,142.06,-110.06,58.77,-67.92
,,0,2025-11-18T17:46:46.207Z,10.63,6.96,-6.68,4.45,144.46,-116.38,57.73,-63.18
,,0,2025-11-18T17:46:46.217Z,10.18,6.89,-6.11,4.33,151.18,-126.81,57.92,-58.47
,,0,2025-11-18T17:46:46.227Z,10.29,6.85,-6.32,4.35,158.55,-136.3,57.85,-56.71
,,0,2025-11-18T17:46:46.237Z,10.32,6.85,-6.43,4.28,166.96,-146.28,59.71,-53.95
,,0,2025-11-18T17:46:46.247Z,10.36,6.84,-6.46,4.34,170.35,-150.09,62.5,-50.83
,,0,2025-11-18T17:46:46.257Z,10.66,6.7,-6.89,4.62,167.21,-145.5,64.9,-50.78
,,0,2025-11-18T17:46:46.267Z,10.98,6.54,-7.53,4.61,156.32,-131.34,65.73,-53.53
,,0,2025-11-18T17:46:46.277Z,10.9,6.37,-7.55,4.6,141.68,-113.17,65.54,-54.5
,,0,2025-11-18T17:46:46.287Z,10.58,6.3,-7.22,4.5,129.14,-97.34,66.21,-53.08
,,0,2025-11-18T17:46:46.297Z,10.1,6.23,-6.62,4.4,122.71,-89.34,67.05,-50.79
,,0,2025-11-18T17:46:46.307Z,9.51,6.22,-5.82,4.23,122.16,-87.84,69.54,-48.69
,,0,2025-11-18T17:46:46.317Z,9.06,6.09,-5.3,4.09,125.54,-91.79,72.1,-46.22
,,0,2025-11-18T17:46:46.327Z,8.81,5.87,-5.25,3.95,129.12,-96.5,73.34,-44.51
,,0,2025-11-18T17:46:46.337Z,8.9,5.71,-5.55,3.98,131.66,-100.14,73.3,-43.98
,,0,2025-11-18T17:46:46.347Z,9.05,5.59,-5.97,3.88,131.12,-100.02,71.76,-45.18
,,0,2025-11-18T17:46:46.357Z,9.26,5.69,-6.17,3.9,130.11,-99.18,70.8,-45.62
,,0,2025-11-18T17:46:46.367Z,9.08,5.71,-5.88,3.91,129.83,-99.84,71.02,-42.94
,,0,2025-11-18T17:46:46.377Z,8.98,5.85,-5.52,4.01,130.26,-101.66,70.83,-40.19
,,0,2025-11-18T17:46:46.387Z,9.09,6.03,-5.44,4.08,130.64,-103.47,70.11,-38.04
,,0,2025-11-18T17:46:46.397Z,9.28,6.24,-5.56,4.04,130.25,-104.67,68.52,-36.24
,,0,2025-11-18T17:46:46.407Z,9.45,6.42,-5.69,3.96,130.27,-106.4,67.18,-33.71
,,0,2025-11-18T17:46:46.417Z,9.52,6.56,-5.74,3.82,130.61,-107.57,67.09,-31.38
,,0,2025-11-18T17:46:46.427Z,9.63,6.4,-6.09,3.83,127.86,-104.56,66.45,-31.62
,,0,2025-11-18T17:46:46.437Z,9.84,6.16,-6.69,3.76,119.69,-95.85,62.74,-34.64
,,0,2025-11-18T17:46:46.447Z,10.01,6.27,-6.94,3.57,112.81,-88.26,59.14,-37.93
,,0,2025-11-18T17:46:46.457Z,9.73,6.41,-6.39,3.57,109.09,-83.68,58.29,-38.75
,,0,2025-11-18T17:46:46.467Z,9.32,6.34,-5.92,3.43,106.61,-81.08,58.52,-36.99
,,0,2025-11-18T17:46:46.477Z,9.19,6.19,-5.94,3.3,103.73,-79.94,56.05,-35.04
,,0,2025-11-18T17:46:46.487Z,9.31,6.17,-6.12,3.32,101.58,-80.36,51.83,-34.27
,,0,2025-11-18T17:46:46.497Z,9.59,6.4,-6.26,3.45,98.94,-80.31,46.24,-34.66
,,0,2025-11-18T17:46:46.507Z,9.9,6.67,-6.46,3.44,96.72,-80.53,40.27,-35.33
,,0,2025-11-18T17:46:46.517Z,10.05,6.91,-6.42,3.46,94.53,-80.05,35.05,-36.05
,,0,2025-11-18T17:46:46.527Z,10.06,7.03,-6.3,3.47,93.14,-80.11,31,-36.02
,,0,2025-11-18T17:46:46.537Z,10.15,7.16,-6.24,3.59,91.95,-79.58,27.92,-36.63
,,0,2025-11-18T17:46:46.547Z,10.15,7.18,-6.23,3.56,90.46,-79.05,25.56,-35.78
,,0,2025-11-18T17:46:46.557Z,10.36,7.33,-6.32,3.69,89.11,-79.31,22.75,-33.67
,,0,2025-11-18T17:46:46.567Z,10.37,7.59,-6.13,3.51,90.82,-82.14,23.31,-30.95
,,0,2025-11-18T17:46:46.577Z,9.97,7.48,-5.8,3.1,95.1,-87.01,26.82,-27.46
,,0,2025-11-18T17:46:46.587Z,9.25,7.24,-5.27,2.3,107.1,-99.95,33.06,-19.69
,,0,2025-11-18T17:46:46.597Z,8.11,6.96,-3.9,1.46,146.78,-139.33,46.02,-3.76
,,0,2025-11-18T17:46:46.607Z,7.36,6.46,-3.39,1.03,186.3,-177.64,55.5,8.47
,,0,2025-11-18T17:46:46.617Z,7.78,6.18,-4.49,1.5,214.04,-205.67,58.76,7.71
,,0,2025-11-18T17:46:46.627Z,10.88,5.82,-8.85,2.49,207.36,-197.55,62.84,4.73
,,0,2025-11-18T17:46:46.637Z,11.7,5.68,-9.91,2.56,169.9,-163.56,45.94,-1.02
,,0,2025-11-18T17:46:46.647Z,12.05,5.97,-10.19,2.4,135.32,-130.61,29.76,-19.14
,,0,2025-11-18T17:46:46.657Z,10.21,6.47,-7.7,1.71,122.36,-116.94,18.34,-31
,,0,2025-11-18T17:46:46.667Z,8.08,6.89,-4.16,0.71,129.78,-123.7,13.69,-36.77
,,0,2025-11-18T17:46:46.677Z,8.22,7.58,-3.1,0.73,144.37,-136.71,18.53,-42.53
,,0,2025-11-18T17:46:46.687Z,9.28,8.09,-4.49,0.72,163.53,-153.08,28.54,-49.96
,,0,2025-11-18T17:46:46.697Z,9.61,7.31,-6.21,0.46,170.2,-160.2,30.62,-48.65
,,0,2025-11-18T17:46:46.707Z,9.24,6.93,-6.11,0.3,168.57,-158.25,26.21,-51.83
,,0,2025-11-18T17:46:46.717Z,9.6,7.57,-5.9,0.09,174.41,-159.61,27.75,-64.61
,,0,2025-11-18T17:46:46.727Z,9.87,8,-5.76,-0.46,177.44,-159.22,31.4,-71.76
,,0,2025-11-18T17:46:46.737Z,10.31,8.67,-5.53,-0.75,181.8,-159.92,41.15,-76.05
,,0,2025-11-18T17:46:46.747Z,10.23,8.75,-5.19,-1.09,184,-158.18,50.76,-79.13
,,0,2025-11-18T17:46:46.757Z,10.06,8.66,-5.03,-0.99,184.92,-157.71,58.7,-76.66
,,0,2025-11-18T17:46:46.767Z,10.42,8.89,-5.39,-0.6,189.39,-159.47,64.56,-79.16
,,0,2025-11-18T17:46:46.777Z,10.58,8.82,-5.75,-0.96,191.95,-156.15,67.58,-88.84
,,0,2025-11-18T17:46:46.787Z,10.64,8.86,-5.8,-1,192.38,-150.86,68.28,-97.92
,,0,2025-11-18T17:46:46.797Z,10.26,9.01,-4.62,-1.69,198.05,-157.73,69.8,-97.33
,,0,2025-11-18T17:46:46.807Z,10.37,9.64,-3.38,-1.73,218.27,-178.01,77.69,-99.6
,,0,2025-11-18T17:46:46.817Z,10.47,9.74,-3.33,-1.9,238.3,-197.35,87.96,-100.52
,,0,2025-11-18T17:46:46.827Z,9.93,9.07,-3.78,-1.44,246.42,-205.74,89.73,-101.71
,,0,2025-11-18T17:46:46.837Z,9.94,8.6,-4.77,-1.44,243.2,-200.43,84.93,-108.46
,,0,2025-11-18T17:46:46.847Z,9.93,8.56,-4.72,-1.76,239.52,-195.43,79.07,-113.69
,,0,2025-11-18T17:46:46.857Z,9.82,8.99,-3.45,-1.91,240.04,-197.86,73.11,-114.56
,,0,2025-11-18T17:46:46.867Z,10.33,9.92,-2.27,-1.78,253.6,-213.33,74.04,-115.43
,,0,2025-11-18T17:46:46.877Z,11.29,11.06,-1.57,-1.62,273.75,-235.27,80.76,-114.29
,,0,2025-11-18T17:46:46.887Z,12.22,11.97,-1.81,-1.71,288.13,-250.14,91.99,-109.5
,,0,2025-11-18T17:46:46.897Z,12.86,12.49,-2.42,-1.89,290.45,-250.14,104.11,-104.66
,,0,2025-11-18T17:46:46.907Z,13.43,12.96,-3,-1.85,293.77,-250.14,117.4,-99.75
,,0,2025-11-18T17:46:46.917Z,13.73,13.13,-3.56,-1.79,298.28,-250.14,131.08,-96.03
,,0,2025-11-18T17:46:46.927Z,13.86,13.07,-4.14,-2.05,301.17,-250.14,140.63,-91.41
,,0,2025-11-18T17:46:46.937Z,13.27,12.68,-3.1,-2.38,301.82,-250.14,146.27,-84.43
,,0,2025-11-18T17:46:46.947Z,13.18,12.57,-2.63,-3,304.93,-250.14,153.57,-82.65
,,0,2025-11-18T17:46:46.957Z,13.03,12.26,-2.88,-3.38,303.56,-250.14,159.21,-65.06
,,0,2025-11-18T17:46:46.967Z,12.57,11.66,-3.28,-3.38,300.27,-250.14,159.13,-47.66
,,0,2025-11-18T17:46:46.977Z,12.38,11.45,-3.76,-2.83,297.75,-250.14,158.09,-33.08
,,0,2025-11-18T17:46:46.987Z,12.47,11.29,-4.65,-2.52,296.54,-250.14,158.15,-18.92
,,0,2025-11-18T17:46:46.997Z,12.07,10.81,-4.86,-2.29,294.94,-250.14,156.27,0.55
,,0,2025-11-18T17:46:47.007Z,11.63,10.32,-4.98,-1.96,295.62,-250.14,155.96,22.32
,,0,2025-11-18T17:46:47.017Z,11.14,9.92,-4.79,-1.65,296.94,-250.14,154.93,40.03
,,0,2025-11-18T17:46:47.027Z,10.77,9.41,-5.03,-1.45,299.84,-250.14,153.42,61.6
,,0,2025-11-18T17:46:47.037Z,10.41,8.34,-5.99,-1.71,301.08,-250.14,145.99,82.24
,,0,2025-11-18T17:46:47.047Z,10.98,7.8,-7.55,-1.65,300.26,-250.14,134.87,96.95
,,0,2025-11-18T17:46:47.057Z,11.56,8.04,-8.17,-1.5,299.48,-250.14,125.34,106.82
,,0,2025-11-18T17:46:47.067Z,12.06,8.25,-8.71,-1.18,282.46,-225.89,122.51,117.24
,,0,2025-11-18T17:46:47.077Z,13.39,8.32,-10.49,-0.3,240.26,-173.34,117.16,118.13
,,0,2025-11-18T17:46:47.087Z,15.16,8.03,-12.86,-0.32,188.32,-106.35,110.56,109.22
,,0,2025-11-18T17:46:47.097Z,15.92,8.32,-13.57,0,146.67,-41.37,102.76,96.14
,,0,2025-11-18T17:46:47.107Z,14.76,8.68,-11.93,0.12,138.14,5.4,106.43,87.91
,,0,2025-11-18T17:46:47.117Z,12.32,8.71,-8.71,0.1,146.86,19.34,114.02,90.52
,,0,2025-11-18T17:46:47.127Z,10.4,8.56,-5.89,0.49,160.31,-0.05,124.24,101.31
,,0,2025-11-18T17:46:47.137Z,9.38,8.02,-4.76,1.07,181.01,-31.89,134.52,116.84
,,0,2025-11-18T17:46:47.147Z,9.68,7.49,-5.89,1.72,193.68,-52.56,136.61,126.84
,,0,2025-11-18T17:46:47.157Z,11.23,7.9,-7.55,2.57,199.01,-57.14,137.4,132.15
,,0,2025-11-18T17:46:47.167Z,12,8.11,-8.42,2.71,196.91,-47.36,137.65,132.6
,,0,2025-11-18T17:46:47.177Z,12.05,8.4,-8.24,2.61,198.21,-40.58,141.47,132.76
,,0,2025-11-18T17:46:47.187Z,11.65,8.25,-7.92,2.19,204.94,-39.97,144.98,139.21
,,0,2025-11-18T17:46:47.197Z,11.67,8.07,-8.09,2.37,211.32,-40.73,148.13,145.11
,,0,2025-11-18T17:46:47.207Z,11.58,7.86,-8.21,2.23,214.79,-36.24,149.79,149.61
,,0,2025-11-18T17:46:47.217Z,12.07,7.67,-9,2.43,216.32,-30.67,150.04,152.79
,,0,2025-11-18T17:46:47.227Z,12.21,7.77,-9.1,2.4,216.03,-20.38,151.52,152.63
,,0,2025-11-18T17:46:47.237Z,12.24,7.76,-9.16,2.37,213.45,-9.27,150.82,150.76
,,0,2025-11-18T17:46:47.247Z,11.79,7.66,-8.68,2.25,210.01,-2.22,148.83,148.15
,,0,2025-11-18T17:46:47.257Z,11.51,7.5,-8.46,2.16,206.61,2.79,147.28,144.87
,,0,2025-11-18T17:46:47.267Z,11.4,7.21,-8.53,2.32,206.26,11.5,148.85,142.33
,,0,2025-11-18T17:46:47.277Z,11.48,7.15,-8.57,2.69,206.1,14.97,147.47,143.2
,,0,2025-11-18T17:46:47.287Z,11.99,7.47,-8.89,2.98,205.46,18.44,147.08,142.27
,,0,2025-11-18T17:46:47.297Z,11.9,7.47,-8.79,2.92,205.16,22.97,148.99,139.16
,,0,2025-11-18T17:46:47.307Z,11.11,6.83,-8.31,2.78,203.61,26.02,148.94,136.37
,,0,2025-11-18T17:46:47.317Z,11.01,6.48,-8.52,2.56,205.36,31.05,150.39,136.34
,,0,2025-11-18T17:46:47.327Z,11.61,6.08,-9.35,3.25,201.87,36.37,148.54,131.78
,,0,2025-11-18T17:46:47.337Z,11.03,6.18,-8.64,2.97,204.03,39.22,147.99,134.86
,,0,2025-11-18T17:46:47.347Z,10.39,5.81,-7.98,3.23,201.18,41.26,145.68,132.47
,,0,2025-11-18T17:46:47.357Z,10.14,5.21,-8.06,3.28,196.42,37.93,142.95,129.26
,,0,2025-11-18T17:46:47.367Z,9.75,4.77,-7.84,3.3,190.13,35.5,138.8,125
,,0,2025-11-18T17:46:47.377Z,9.21,4.63,-7.3,3.17,186.67,31.37,135.94,124.03
,,0,2025-11-18T17:46:47.387Z,8.89,4.31,-7.06,3.25,186.32,21.9,135.3,126.22
,,0,2025-11-18T17:46:47.397Z,9.15,3.6,-7.62,3.57,180.59,26.33,131.11,121.37
,,0,2025-11-18T17:46:47.407Z,10.07,3.15,-8.84,3.66,174.16,36.46,126.99,113.47
,,0,2025-11-18T17:46:47.417Z,10.13,2.92,-8.84,3.98,170.85,49.24,122.09,108.89
,,0,2025-11-18T17:46:47.427Z,9.58,2.47,-8.36,3.97,167.39,57.5,117.6,104.31
,,0,2025-11-18T17:46:47.437Z,9.13,2.05,-7.9,4.09,164.5,59.64,115.15,101.21
,,0,2025-11-18T17:46:47.447Z,8.02,1.16,-7.02,3.7,159.86,51.03,113.15,100.75
,,0,2025-11-18T17:46:47.457Z,8.15,0.49,-7.14,3.9,156.33,47.49,112.21,97.94
,,0,2025-11-18T17:46:47.467Z,8.85,0,-7.73,4.31,150.66,44.7,107.6,95.5
,,0,2025-11-18T17:46:47.477Z,9.24,-0.65,-8.01,4.56,142.82,45.42,101.5,89.62
,,0,2025-11-18T17:46:47.487Z,9.49,-0.98,-8.07,4.9,135.81,57.7,92.57,80.91
,,0,2025-11-18T17:46:47.497Z,9.81,-1,-8.25,5.22,137.25,71.74,88.48,76.56
,,0,2025-11-18T17:46:47.507Z,10.19,-1.1,-8.35,5.73,138.78,76.58,87.1,76.21
,,0,2025-11-18T17:46:47.517Z,10.13,-1.52,-8.06,5.94,134.5,70.98,84.95,76.39
,,0,2025-11-18T17:46:47.527Z,10.24,-1.93,-7.89,6.23,129.89,65.64,83.05,75.27
,,0,2025-11-18T17:46:47.537Z,9.92,-2.49,-7.49,6.01,126.61,53.5,83.66,78.54
,,0,2025-11-18T17:46:47.547Z,9.8,-2.87,-7.08,6.14,126.95,43.32,84.48,84.27
,,0,2025-11-18T17:46:47.557Z,11.43,-3.68,-8.42,6.8,128.43,42.07,84.96,86.64
,,0,2025-11-18T17:46:47.567Z,13.28,-4.62,-10.25,7.06,117.33,49.6,72.93,77.38
,,0,2025-11-18T17:46:47.577Z,13.55,-4.21,-10.83,6.97,128.27,74.48,78.15,69.27
,,0,2025-11-18T17:46:47.587Z,12.82,-4.28,-9.94,6.88,137.82,88.6,85.95,61.27
,,0,2025-11-18T17:46:47.597Z,13.04,-5.3,-10.13,6.28,139.56,89.18,87.37,62.37
,,0,2025-11-18T17:46:47.607Z,13.29,-4.78,-10.47,6.65,141.92,77.44,94.85,71.76
,,0,2025-11-18T17:46:47.617Z,13.45,-5.8,-10.18,6.62,138.61,60.41,102.03,71.79
,,0,2025-11-18T17:46:47.627Z,13.96,-7.13,-9.33,7.54,136.82,43.44,105.3,75.79
,,0,2025-11-18T17:46:47.637Z,15.21,-8.4,-9.41,8.5,137.53,34.51,102.14,85.39
,,0,2025-11-18T17:46:47.647Z,15.66,-8.57,-9.7,8.81,136.8,33.45,92.68,94.89
,,0,2025-11-18T17:46:47.657Z,15.96,-8.7,-9.87,9.04,143.18,32.9,92.63,104.11
,,0,2025-11-18T17:46:47.667Z,17.09,-9.32,-11.03,9.14,148.92,32.31,88.63,115.23
,,0,2025-11-18T17:46:47.677Z,16.71,-9.63,-10.39,8.87,153.9,28.78,86.31,124.12
,,0,2025-11-18T17:46:47.687Z,17.59,-10.25,-11.29,8.77,162.14,29.8,82.66,136.27
,,0,2025-11-18T17:46:47.697Z,17.7,-10.7,-11.35,8.36,168.24,28.52,80.38,145.02
,,0,2025-11-18T17:46:47.707Z,18.19,-11.45,-11.47,8.26,175.86,23.84,83.64,152.85
,,0,2025-11-18T17:46:47.717Z,18.33,-12.01,-11.11,8.28,183.14,16.05,86.9,160.41
,,0,2025-11-18T17:46:47.727Z,18.86,-12.66,-11.12,8.45,192.84,5.72,92.85,168.92
,,0,2025-11-18T17:46:47.737Z,18.93,-13.05,-10.87,8.36,204.6,-6.71,101.85,177.32
,,0,2025-11-18T17:46:47.747Z,19.21,-13.55,-10.86,8.21,218.47,-19.72,112.15,186.45
,,0,2025-11-18T17:46:47.757Z,19.36,-13.91,-10.79,8.07,232.86,-31.29,122.97,195.25
,,0,2025-11-18T17:46:47.767Z,19.48,-14.45,-10.66,7.56,248.78,-45.98,132.24,205.64
,,0,2025-11-18T17:46:47.777Z,19.43,-14.52,-10.98,6.78,265.32,-60.58,143.34,214.89
,,0,2025-11-18T17:46:47.787Z,19.39,-15.06,-10.85,5.6,279.6,-73.79,152.05,222.73
,,0,2025-11-18T17:46:47.797Z,20.17,-15.54,-12.04,4.5,289.42,-78.87,156.36,230.43
,,0,2025-11-18T17:46:47.807Z,20.28,-15.97,-12.04,3.38,296.87,-85.83,158.82,235.67
,,0,2025-11-18T17:46:47.817Z,20.38,-16.64,-11.59,2,308.1,-100.54,159.21,243.85
,,0,2025-11-18T17:46:47.827Z,20.67,-17.17,-11.48,0.71,320.52,-121.44,159.44,250.13
,,0,2025-11-18T17:46:47.837Z,20.88,-17.45,-11.47,-0.29,329.48,-144.32,158.63,250.13
,,0,2025-11-18T17:46:47.847Z,20.68,-17.31,-11.23,-1.39,339.82,-166.63,158.58,250.13
,,0,2025-11-18T17:46:47.857Z,20.2,-17.04,-10.5,-2.71,355.54,-196.16,159.26,250.13
,,0,2025-11-18T17:46:48.026Z,23.93,10.3,-9.04,-19.62,252.26,-250.14,26.63,18.87
,,0,2025-11-18T17:46:48.035Z,26.57,15.4,-9.17,-19.62,251.58,-250.14,3.85,-26.6
,,0,2025-11-18T17:46:48.045Z,28.48,19.62,-6.43,-19.62,265.88,-250.14,-28.51,-85.5
,,0,2025-11-18T17:46:48.055Z,27.99,19.62,-3.71,-19.62,299.71,-250.14,-88.44,-139.42
,,0,2025-11-18T17:46:48.065Z,27.77,19.62,1.09,-19.62,357.05,-250.14,-156.73,-200.88
,,0,2025-11-18T17:46:48.075Z,27.96,19.62,3.41,-19.62,429.6,-250.14,-243.76,-250.14
,,0,2025-11-18T17:46:48.085Z,28.65,19.62,7.14,-19.62,433.25,-250.14,-250.14,-250.14
,,0,2025-11-18T17:46:48.095Z,29.5,19.62,10.02,-19.62,433.25,-250.14,-250.14,-250.14
,,0,2025-11-18T17:46:48.105Z,29.48,19.62,9.96,-19.62,433.25,-250.14,-250.14,-250.14
,,0,2025-11-18T17:46:48.115Z,28.03,19.62,3.99,-19.62,433.25,-250.14,-250.14,-250.14
,,0,2025-11-18T17:46:48.125Z,27.86,19.62,-3.73,-19.42,433.25,-250.14,-250.14,-250.14
,,0,2025-11-18T17:46:48.135Z,28.65,19.62,-16.33,-13,426.9,-238.97,-250.14,-250.14
,,0,2025-11-18T17:46:48.145Z,29.04,19.62,-19.62,-8.57,374.09,-121.66,-250.14,-250.14
,,0,2025-11-18T17:46:48.155Z,29.24,19.62,-19.62,-9.23,354.24,-18.63,-250.14,-250.14
,,0,2025-11-18T17:46:48.165Z,31.45,19.62,-19.62,-14.8,354.15,16.97,-250.14,-250.14
,,0,2025-11-18T17:46:48.175Z,33.98,19.62,-19.62,-19.62,364.09,86.15,-250.14,-250.14
,,0,2025-11-18T17:46:48.185Z,33.98,19.62,-19.62,-19.62,427.68,240.35,-250.14,-250.14
,,0,2025-11-18T17:46:48.195Z,33.98,19.62,-19.62,-19.62,433.25,250.13,-250.14,-250.14
,,0,2025-11-18T17:46:48.205Z,30.14,11.76,-19.62,-19.62,433.25,250.13,-250.14,-250.14
,,0,2025-11-18T17:46:48.215Z,28.96,18.39,-10.75,-19.62,433.25,250.13,-250.14,-250.14
,,0,2025-11-18T17:46:48.225Z,27.84,19.62,-2.31,-19.62,433.25,250.13,-250.14,-250.14
,,0,2025-11-18T17:46:48.235Z,27.92,19.62,3.07,-19.62,427.95,250.13,-250.14,-240.84
,,0,2025-11-18T17:46:48.245Z,28.65,19.62,7.13,-19.62,373.03,250.13,-250.14,-118.38
,,0,2025-11-18T17:46:48.255Z,29.24,19.62,9.21,-19.62,354.37,250.13,-250.14,21.16
,,0,2025-11-18T17:46:48.265Z,28.24,19.62,5.26,-19.62,378.46,250.13,-250.14,134.53
,,0,2025-11-18T17:46:48.275Z,27.87,19.62,2.63,-19.62,415.4,250.13,-250.14,217.76
,,0,2025-11-18T17:46:48.285Z,27.78,19.62,1.29,-19.62,433.24,250.13,-250.14,250.13
,,0,2025-11-18T17:46:48.295Z,27.77,19.62,1.11,-19.62,433.24,250.13,-250.14,250.13
,,0,2025-11-18T17:46:48.305Z,28.1,19.62,4.47,-19.62,433.24,250.13,-250.14,250.13
,,0,2025-11-18T17:46:48.315Z,29.42,19.62,9.78,-19.62,433.24,250.13,-250.14,250.13
,,0,2025-11-18T17:46:48.325Z,29.99,19.62,11.38,-19.62,429.2,250.13,-243.08,250.13
,,0,2025-11-18T17:46:48.335Z,30.38,19.62,12.38,-19.62,404.38,250.13,-195.94,250.13
,,0,2025-11-18T17:46:48.345Z,31.27,19.62,14.43,-19.62,393.79,250.13,-173.02,250.13
,,0,2025-11-18T17:46:48.355Z,31.13,19.62,14.1,-19.62,389.67,250.13,-163.44,250.13
,,0,2025-11-18T17:46:48.365Z,32.07,19.62,16.08,-19.62,383.04,250.13,-153.21,246.33
,,0,2025-11-18T17:46:48.375Z,33.76,19.62,19.23,-19.62,376.24,250.13,-131.72,248.28
,,0,2025-11-18T17:46:48.385Z,33.4,19.62,19.62,-18.6,362.52,241.37,-105.17,249.21
,,0,2025-11-18T17:46:48.395Z,30.83,19.62,18.51,-14.92,312.8,168.14,-83.72,250.13
,,0,2025-11-18T17:46:48.405Z,27.74,19.62,14.79,-12.88,279.68,103.75,-69.94,250.13
,,0,2025-11-18T17:46:48.415Z,24.21,19.62,9.11,-10.87,268.14,72.15,-64.26,250.13
,,0,2025-11-18T17:46:48.425Z,22.6,19.62,6.05,-9.45,258.93,53.64,-40.03,250.13
,,0,2025-11-18T17:46:48.435Z,21.56,19.62,2.81,-8.48,255.51,49.38,-16.78,250.13
,,0,2025-11-18T17:46:48.445Z,21.05,19.62,2.65,-7.15,248.76,40.06,5.08,245.46
,,0,2025-11-18T17:46:48.455Z,20.58,19.62,2.19,-5.83,234.68,34.74,18.11,231.38
,,0,2025-11-18T17:46:48.465Z,20.14,19.62,0.56,-4.52,226.87,42.15,29.2,221
,,0,2025-11-18T17:46:48.475Z,19.94,19.62,-0.36,-3.56,212.67,51.99,45.38,201.16
,,0,2025-11-18T17:46:48.485Z,19.04,18.84,-0.58,-2.68,203.41,69.93,66.18,179.18
,,0,2025-11-18T17:46:48.495Z,16.25,16.08,-0.58,-2.29,193.05,88.98,78.54,152.25
,,0,2025-11-18T17:46:48.505Z,12.87,12.75,0.15,-1.71,175.86,99.43,71.99,125.93
,,0,2025-11-18T17:46:48.515Z,10.44,10.28,0.09,-1.82,147.54,98.71,56.03,94.26
,,0,2025-11-18T17:46:48.525Z,9.59,9.35,-0.38,-2.06,119.06,87.3,37.95,71.51
,,0,2025-11-18T17:46:48.535Z,10.09,9.7,-1.57,-2.28,97.4,77.97,34.53,47.07
,,0,2025-11-18T17:46:48.545Z,10.44,9.77,-2.67,-2.51,90.72,74.87,43.73,26.68
,,0,2025-11-18T17:46:48.555Z,9.65,8.94,-2.79,-2.33,94.82,75.05,55.33,17.27
,,0,2025-11-18T17:46:48.565Z,8.51,7.86,-2.46,-2.16,97.06,71.27,64.5,13.47
,,0,2025-11-18T17:46:48.575Z,7.18,6.46,-2.43,-1.98,95.64,65.71,68.42,12.13
,,0,2025-11-18T17:46:48.585Z,6.39,5.27,-2.99,-2.04,85.99,59.58,61.94,2.74
,,0,2025-11-18T17:46:48.595Z,6.56,4.67,-4.16,-1.98,79.82,55.15,56.72,-10.63
,,0,2025-11-18T17:46:48.605Z,6.57,4.19,-4.87,-1.4,82.24,61.46,49.73,-22.66
,,0,2025-11-18T17:46:48.615Z,6.78,4.27,-5.14,-1.14,94.72,70.08,46.49,-43.57
,,0,2025-11-18T17:46:48.625Z,6.59,4.07,-5.12,-0.88,106.85,75.98,46.13,-59.3
,,0,2025-11-18T17:46:48.635Z,6.31,3.86,-4.9,-0.91,115.72,79.37,49.52,-68.11
,,0,2025-11-18T17:46:48.645Z,5.66,3.48,-4.4,-0.73,129.07,88,50.07,-80.05
,,0,2025-11-18T17:46:48.655Z,5.61,3.19,-4.6,-0.43,137.58,94.61,53.11,-84.6
,,0,2025-11-18T17:46:48.665Z,5.43,2.63,-4.74,-0.25,138.37,98.27,54.28,-80.89
,,0,2025-11-18T17:46:48.675Z,5.51,2.23,-5.03,0,141.59,100.45,57.48,-81.56
,,0,2025-11-18T17:46:48.685Z,5.48,1.99,-5.11,0.16,145.91,96.92,62.2,-89.6
,,0,2025-11-18T17:46:48.695Z,5.59,1.59,-5.32,0.68,150.18,93.29,68.44,-95.74
,,0,2025-11-18T17:46:48.705Z,5.95,0.84,-5.76,1.22,152.91,95.98,68.98,-97.02
,,0,2025-11-18T17:46:48.715Z,6.12,0.28,-5.96,1.36,149.71,95.76,63.34,-96.08
,,0,2025-11-18T17:46:48.725Z,5.6,0.14,-5.39,1.53,146.64,93.87,58.38,-96.35
,,0,2025-11-18T17:46:48.735Z,5.24,0.23,-4.93,1.76,150.54,97.28,56.79,-99.87
,,0,2025-11-18T17:46:48.745Z,5.4,0.17,-5.12,1.7,146.86,92.46,58.83,-97.77
,,0,2025-11-18T17:46:48.755Z,5.64,0.14,-5.29,1.95,136.93,82.4,65.13,-87.85
,,0,2025-11-18T17:46:48.765Z,6.09,-0.24,-5.63,2.31,129.01,73.97,71.63,-77.73
,,0,2025-11-18T17:46:48.775Z,7.42,-0.52,-6.87,2.77,123.54,66.23,76.47,-70.91
,,0,2025-11-18T17:46:48.785Z,8.89,-0.87,-8.32,3.03,120.51,66.14,73.6,-68.78
,,0,2025-11-18T17:46:48.795Z,9.55,-0.34,-8.79,3.73,117.04,64.6,68.56,-69.47
,,0,2025-11-18T17:46:48.805Z,9.7,0.29,-8.53,4.6,108.5,57.33,65.65,-64.63
,,0,2025-11-18T17:46:48.815Z,10.34,0.95,-9.06,4.9,99.85,47.71,65.3,-58.57
,,0,2025-11-18T17:46:48.825Z,11,0.92,-10.03,4.44,93,41.15,64.76,-52.56
,,0,2025-11-18T17:46:48.835Z,12.01,1.19,-11.25,4.02,86.67,39.18,56.83,-52.4
,,0,2025-11-18T17:46:48.845Z,12.25,1.88,-11.69,3.16,79.75,33.52,47.13,-54.91
,,0,2025-11-18T17:46:48.855Z,12.8,3.09,-12.14,2.63,72.32,23.24,45.98,-50.76
,,0,2025-11-18T17:46:48.865Z,13.51,3.44,-12.88,2.16,63.66,13.89,49.08,-38.09
,,0,2025-11-18T17:46:48.875Z,14.34,3.82,-13.71,1.78,70.78,3.24,56.47,-42.55
,,0,2025-11-18T17:46:48.885Z,14.86,3.86,-14.27,1.49,76.46,2.54,56.97,-50.94
,,0,2025-11-18T17:46:48.895Z,15.02,4.06,-14.39,1.43,83.92,4.38,58.95,-59.56
,,0,2025-11-18T17:46:48.905Z,15.1,4.08,-14.47,1.36,90.49,12.08,55.49,-70.46
,,0,2025-11-18T17:46:48.915Z,15.44,4.34,-14.76,1.25,98.85,18.25,51.91,-82.12
,,0,2025-11-18T17:46:48.925Z,15.51,4.82,-14.69,1.14,103.29,24.31,48.66,-87.81
,,0,2025-11-18T17:46:48.935Z,14.75,5.49,-13.64,1.2,106.92,21.72,50.51,-91.69
,,0,2025-11-18T17:46:48.945Z,13.74,6.01,-12.28,1.33,113.24,10.96,57.75,-96.79
,,0,2025-11-18T17:46:48.955Z,13.2,6.07,-11.64,1.41,115.61,-1.95,66.48,-94.56
,,0,2025-11-18T17:46:48.965Z,12.79,5.54,-11.39,1.74,111.55,-13.62,70.66,-85.24
,,0,2025-11-18T17:46:48.975Z,12.77,5.29,-11.44,2.02,110.26,-22.51,71.55,-80.81
,,0,2025-11-18T17:46:48.985Z,13.01,5.31,-11.66,2.27,113.45,-26.24,71.29,-84.26
,,0,2025-11-18T17:46:48.995Z,13.15,5.4,-11.71,2.53,119.27,-22.98,72.38,-91.97
,,0,2025-11-18T17:46:49.005Z,13.05,5.4,-11.56,2.75,124.04,-20.56,74.12,-97.31
,,0,2025-11-18T17:46:49.015Z,12.59,5.33,-11,3.03,126.77,-22.32,75.78,-99.15
,,0,2025-11-18T17:46:49.025Z,11.89,5.13,-10.23,3.22,127.16,-29.21,75.76,-97.85
,,0,2025-11-18T17:46:49.035Z,11.52,5.01,-9.83,3.33,127.31,-38.31,75.31,-95.23
,,0,2025-11-18T17:46:49.045Z,11.3,4.85,-9.68,3.24,127.68,-49.1,75.18,-90.76
,,0,2025-11-18T17:46:49.055Z,11.02,4.75,-9.49,2.99,129.44,-60.47,75.66,-85.87
,,0,2025-11-18T17:46:49.065Z,10.93,4.78,-9.41,2.81,134.05,-69.37,75.82,-86.08
,,0,2025-11-18T17:46:49.075Z,10.93,4.9,-9.45,2.47,140.05,-74.93,76.27,-90.46
,,0,2025-11-18T17:46:49.085Z,10.84,4.94,-9.37,2.32,144.13,-75.18,77.56,-95.42
,,0,2025-11-18T17:46:49.095Z,10.74,4.99,-9.29,2,148.4,-73.24,79.39,-101.76
,,0,2025-11-18T17:46:49.105Z,10.13,4.9,-8.69,1.75,151.2,-72.85,82.31,-103.82
,,0,2025-11-18T17:46:49.115Z,9.31,4.81,-7.79,1.69,154.27,-76.28,86.45,-102.5
,,0,2025-11-18T17:46:49.125Z,8.63,4.7,-7.08,1.51,159.86,-86.97,91.82,-97.78
,,0,2025-11-18T17:46:49.135Z,8.23,4.45,-6.77,1.45,165.21,-99.47,97.03,-89.35
,,0,2025-11-18T17:46:49.145Z,8.29,4.26,-7.03,1.12,172.03,-110.23,102.11,-83.77
,,0,2025-11-18T17:46:49.155Z,8.53,4.11,-7.41,1,180.59,-118.02,109.53,-81.79
,,0,2025-11-18T17:46:49.165Z,8.62,3.9,-7.63,0.94,186.17,-121.04,116.6,-80.07
,,0,2025-11-18T17:46:49.175Z,8.67,3.47,-7.86,1.2,185.57,-115.69,120.44,-80.89
,,0,2025-11-18T17:46:49.185Z,8.85,2.98,-8.19,1.53,179.39,-105.22,119.8,-82.2
,,0,2025-11-18T17:46:49.195Z,8.57,2.72,-7.92,1.82,169.89,-93.11,115.37,-82.96
,,0,2025-11-18T17:46:49.205Z,8.01,2.83,-7.21,2.03,164.01,-85.5,112.54,-83.21
,,0,2025-11-18T17:46:49.215Z,7.46,3.18,-6.37,2.21,163.79,-84.98,113.21,-82.4
,,0,2025-11-18T17:46:49.225Z,6.81,3.25,-5.55,2.26,166.04,-90.33,115.84,-77.4
,,0,2025-11-18T17:46:49.235Z,6.56,3.09,-5.32,2.28,169.42,-96.75,119.63,-70.92
,,0,2025-11-18T17:46:49.245Z,6.28,3.08,-5.05,2.12,174.06,-101.65,122.15,-71.02
,,0,2025-11-18T17:46:49.255Z,6.26,2.98,-5.15,1.95,175.99,-104.68,122.89,-70.09
,,0,2025-11-18T17:46:49.265Z,6.3,2.81,-5.24,2.06,173.71,-107.21,121.99,-61.64
,,0,2025-11-18T17:46:49.275Z,6.46,2.89,-5.42,2.02,172.11,-111.93,117.95,-56.42
,,0,2025-11-18T17:46:49.285Z,7.26,3.14,-6.18,2.15,169.18,-112.11,113.66,-56.01
,,0,2025-11-18T17:46:49.295Z,8.12,3.51,-6.98,2.22,163.67,-108.98,107.89,-57.21
,,0,2025-11-18T17:46:49.305Z,8.9,4,-7.54,2.51,157.95,-102.77,103.68,-60.31
,,0,2025-11-18T17:46:49.315Z,9.46,4.42,-7.9,2.77,153.47,-96.98,99.9,-64.55
,,0,2025-11-18T17:46:49.325Z,10.06,4.8,-8.33,2.98,149.33,-92.21,94.87,-69.24
,,0,2025-11-18T17:46:49.335Z,10.69,5.25,-8.75,3.18,145.61,-86.24,89.05,-76.38
,,0,2025-11-18T17:46:49.345Z,11.34,5.84,-9.15,3.27,145.02,-81.7,84.74,-84.71
,,0,2025-11-18T17:46:49.355Z,11.93,6.55,-9.35,3.5,146.74,-79.94,83.56,-90.33
,,0,2025-11-18T17:46:49.365Z,12.53,7.02,-9.64,3.83,149.16,-81.63,83.61,-92.71
,,0,2025-11-18T17:46:49.375Z,12.84,7.58,-9.66,3.78,154.88,-90.53,84.04,-93.44
,,0,2025-11-18T17:46:49.385Z,13.15,8.31,-9.4,3.93,165.52,-106.38,86.88,-92.37
,,0,2025-11-18T17:46:49.395Z,13.04,8.64,-9.01,3.77,180.36,-129.14,89.21,-88.84
,,0,2025-11-18T17:46:49.405Z,13.44,9.12,-9.03,4,190.86,-145.02,93,-82.15
,,0,2025-11-18T17:46:49.415Z,14.01,9.17,-9.82,3.98,192.21,-146.95,95.15,-79.34
,,0,2025-11-18T17:46:49.425Z,14.36,9.08,-10.4,3.97,189.9,-142.98,97.3,-78.44
,,0,2025-11-18T17:46:49.435Z,13.91,8.65,-10.09,4.09,181.83,-134.95,96.37,-74.56
,,0,2025-11-18T17:46:49.445Z,13.24,8.25,-9.47,4.18,175.47,-129.21,94.11,-72.38
,,0,2025-11-18T17:46:49.455Z,12.76,8.04,-8.95,4.25,173.99,-127.65,92.08,-74.15
,,0,2025-11-18T17:46:49.465Z,12.6,8.14,-8.53,4.45,173.66,-126.63,91.05,-76.37
,,0,2025-11-18T17:46:49.475Z,12.21,8,-7.93,4.72,172.48,-127.64,89.98,-73.22
,,0,2025-11-18T17:46:49.485Z,11.83,7.82,-7.32,5.03,171.5,-129.63,89.61,-67.66
,,0,2025-11-18T17:46:49.495Z,11.66,7.58,-7.21,5.15,168.48,-129.6,89.09,-60.44
,,0,2025-11-18T17:46:49.505Z,11.47,7.46,-7.05,5.12,166.52,-128.38,89.81,-56.41
,,0,2025-11-18T17:46:49.515Z,11.22,7,-7.03,5.24,162.96,-124.51,89.01,-55.96
,,0,2025-11-18T17:46:49.525Z,11,6.6,-7.11,5.19,157.04,-118.79,85.52,-56.89
,,0,2025-11-18T17:46:49.535Z,10.87,6.3,-7.25,5.08,149.1,-110.24,81.34,-58.85
,,0,2025-11-18T17:46:49.545Z,10.55,6.08,-7.06,4.97,143.76,-103.59,78.49,-61.44
,,0,2025-11-18T17:46:49.555Z,9.97,5.86,-6.34,4.98,139.88,-100.35,78.11,-58.27
,,0,2025-11-18T17:46:49.565Z,9.4,5.61,-5.69,4.93,138.7,-101.04,79.06,-52.7
,,0,2025-11-18T17:46:49.575Z,9.14,5.36,-5.53,4.91,140.7,-104.31,80.43,-49.45
,,0,2025-11-18T17:46:49.585Z,8.95,5.11,-5.55,4.81,143.57,-106.99,83.45,-46.92
,,0,2025-11-18T17:46:49.595Z,8.49,4.75,-5.41,4.49,146.91,-110.62,86.44,-43.31
,,0,2025-11-18T17:46:49.605Z,8.24,4.41,-5.26,4.55,147.55,-112.43,87.12,-39.25
,,0,2025-11-18T17:46:49.615Z,8.28,3.99,-5.61,4.59,143.14,-108.53,84.51,-39.6
,,0,2025-11-18T17:46:49.625Z,8.49,3.79,-6.17,4.44,134.36,-99.92,79.17,-42.44
,,0,2025-11-18T17:46:49.635Z,8.37,3.88,-6.11,4.2,127.86,-91.94,76.93,-44.47
,,0,2025-11-18T17:46:49.645Z,7.96,3.89,-5.7,3.97,122.65,-85.42,75.73,-44.87
,,0,2025-11-18T17:46:49.655Z,7.58,3.71,-5.46,3.72,118.79,-82.15,73.4,-44.45
,,0,2025-11-18T17:46:49.665Z,7.54,3.68,-5.53,3.56,116.29,-81.2,69.66,-45.59
,,0,2025-11-18T17:46:49.675Z,7.85,3.86,-5.89,3.45,113.13,-80.4,64.46,-46.69
,,0,2025-11-18T17:46:49.685Z,8.34,4.17,-6.25,3.62,111.65,-79.84,61.3,-48.31
,,0,2025-11-18T17:46:49.695Z,8.78,4.39,-6.71,3.57,108.76,-77.18,57.3,-50.89
,,0,2025-11-18T17:46:49.705Z,9.3,4.68,-7.16,3.66,105.86,-73.95,53.89,-53.22
,,0,2025-11-18T17:46:49.715Z,9.81,4.85,-7.62,3.83,101.82,-70.31,49.66,-54.39
,,0,2025-11-18T17:46:49.725Z,10.21,5.21,-7.93,3.78,99.05,-67.63,46.44,-55.5
,,0,2025-11-18T17:46:49.735Z,10.61,5.53,-8.24,3.76,96.42,-63.87,45.56,-56.05
,,0,2025-11-18T17:46:49.745Z,10.78,5.72,-8.37,3.67,94.65,-59.67,45.24,-57.89
,,0,2025-11-18T17:46:49.755Z,10.7,5.99,-8.14,3.54,94.25,-55.92,47.3,-59.31
,,0,2025-11-18T17:46:49.765Z,10.48,6.05,-7.86,3.38,92.22,-51.85,49.05,-58.4
,,0,2025-11-18T17:46:49.775Z,10.39,6.19,-7.59,3.45,90.68,-51.66,49.87,-55.39
,,0,2025-11-18T17:46:49.785Z,10.43,6.4,-7.5,3.43,90.59,-54.2,49.22,-53.34
,,0,2025-11-18T17:46:49.795Z,10.73,6.69,-7.64,3.46,93.35,-59.44,48.95,-52.78
,,0,2025-11-18T17:46:49.805Z,11.07,6.97,-7.78,3.66,95.11,-62.84,48.72,-52.19
,,0,2025-11-18T17:46:49.815Z,11.19,6.91,-7.95,3.77,94.77,-63.8,46.71,-52.24
,,0,2025-11-18T17:46:49.825Z,11.58,6.87,-8.39,4.06,89.69,-59.68,41.39,-52.63
,,0,2025-11-18T17:46:49.835Z,11.95,6.99,-8.77,4.14,82.52,-54.21,34.62,-51.69
,,0,2025-11-18T17:46:49.845Z,11.92,7.36,-8.39,4.2,77.64,-50.13,32.12,-49.82
,,0,2025-11-18T17:46:49.855Z,11.55,7.53,-7.71,4.15,77.79,-50.61,34.2,-48.18
,,0,2025-11-18T17:46:49.865Z,11.22,7.38,-7.3,4.26,80.39,-54.24,39.79,-44.03
,,0,2025-11-18T17:46:49.875Z,10.99,6.93,-7.27,4.45,82.09,-58.07,44.6,-37.12
,,0,2025-11-18T17:46:49.885Z,10.6,6.26,-7.31,4.44,80.96,-59.4,46.47,-29.45
,,0,2025-11-18T17:46:49.895Z,10.18,5.6,-7.21,4.5,79.73,-61.66,44.31,-24.31
,,0,2025-11-18T17:46:49.905Z,9.98,5.35,-7.04,4.63,77.94,-63.8,38.35,-23.09
,,0,2025-11-18T17:46:49.915Z,10.23,5.23,-7.4,4.74,75.7,-64.82,30.3,-24.69
,,0,2025-11-18T17:46:49.925Z,10.63,5.23,-8.01,4.62,71.1,-62.71,21.89,-25.37
,,0,2025-11-18T17:46:49.935Z,10.92,5.44,-8.27,4.62,68.46,-60.6,16.6,-27.18
,,0,2025-11-18T17:46:49.945Z,10.94,5.46,-8.32,4.55,68.17,-58.73,15.09,-31.15
,,0,2025-11-18T17:46:49.955Z,10.75,5.27,-8.24,4.47,69.04,-58.4,15.19,-33.53
,,0,2025-11-18T17:46:49.965Z,10.61,5.06,-8.14,4.57,70.11,-59.03,14.48,-34.95
,,0,2025-11-18T17:46:49.975Z,10.4,4.94,-7.9,4.62,71.42,-60.84,12.54,-35.25
,,0,2025-11-18T17:46:49.985Z,10.22,5.02,-7.67,4.52,73.61,-64.73,11.13,-33.24
,,0,2025-11-18T17:46:49.995Z,10,5.26,-7.34,4.29,80.03,-72.82,12.08,-30.92
,,0,2025-11-18T17:46:50.005Z,9.59,5.6,-6.73,3.89,90.79,-84.83,16.24,-27.97
,,0,2025-11-18T17:46:50.015Z,9.3,5.75,-6.39,3.57,101.29,-95.89,22.85,-23.29
,,0,2025-11-18T17:46:50.025Z,9.43,5.62,-6.76,3.4,109.25,-103.54,28.86,-19.52
,,0,2025-11-18T17:46:50.32Z,12.34,11.13,-4.65,-2.62,273.34,-240.43,61.75,-114.44
,,0,2025-11-18T17:46:50.328Z,12.65,11.5,-4.4,-2.92,281.9,-250.14,65.65,-112.21
,,0,2025-11-18T17:46:50.338Z,13.01,11.82,-4.32,-3.3,283.43,-250.14,71.81,-112.28
,,0,2025-11-18T17:46:50.348Z,13.64,12.18,-4.8,-3.83,285.03,-250.14,78.74,-111.69
,,0,2025-11-18T17:46:50.358Z,14.08,12.32,-5.61,-3.86,287.08,-250.14,86.81,-110.95
,,0,2025-11-18T17:46:50.368Z,13.95,12.32,-5.65,-3.3,290.46,-250.14,96.66,-111.6
,,0,2025-11-18T17:46:50.378Z,13.37,12,-5.09,-3,290.16,-250.14,101.65,-106.27
,,0,2025-11-18T17:46:50.388Z,12.82,11.79,-4.04,-3.01,289.09,-250.14,105.15,-99.73
,,0,2025-11-18T17:46:50.398Z,12.47,11.59,-3.42,-3.07,288.08,-250.14,108.69,-92.79
,,0,2025-11-18T17:46:50.408Z,12.42,11.54,-3.52,-2.96,287.75,-250.14,113.36,-85.9
,,0,2025-11-18T17:46:50.418Z,12.18,11.27,-3.78,-2.66,286.63,-250.14,117.37,-76.21
,,0,2025-11-18T17:46:50.428Z,11.94,11.1,-4.01,-1.78,285.33,-250.14,118.81,-68.77
,,0,2025-11-18T17:46:50.438Z,11.93,11.14,-4.02,-1.43,283.83,-250.14,116.47,-66.51
,,0,2025-11-18T17:46:50.448Z,12.08,11.45,-3.65,-1.18,282.37,-250.14,118.26,-56.39
,,0,2025-11-18T17:46:50.458Z,11.87,11.5,-2.74,-1.12,280.13,-250.14,120.49,-37.21
,,0,2025-11-18T17:46:50.468Z,11.92,11.71,-1.87,-1.19,280.62,-250.14,125.4,-21.27
,,0,2025-11-18T17:46:50.478Z,11.74,11.5,-1.85,-1.46,282.63,-250.14,131.57,-1.22
,,0,2025-11-18T17:46:50.488Z,11.67,11.14,-3.13,-1.48,285.25,-250.14,136.24,15.46
,,0,2025-11-18T17:46:50.498Z,11.95,10.57,-5.3,-1.73,285.03,-250.14,133.8,27.74
,,0,2025-11-18T17:46:50.508Z,12.22,10.19,-6.56,-1.57,284.49,-250.14,129.6,39.6
,,0,2025-11-18T17:46:50.518Z,11.98,10.07,-6.27,-1.72,285.15,-250.14,125.95,53.63
,,0,2025-11-18T17:46:50.528Z,11.9,9.86,-6.4,-1.84,287.92,-250.14,125.03,68.52
,,0,2025-11-18T17:46:50.538Z,12.47,9.59,-7.79,-1.71,290.61,-250.14,123.96,80.75
,,0,2025-11-18T17:46:50.548Z,13.8,9.46,-10,-0.97,262.79,-218.25,118.5,85.92
,,0,2025-11-18T17:46:50.558Z,16.07,9.4,-13.04,0.12,197.45,-143.82,109.01,80.11
,,0,2025-11-18T17:46:50.568Z,17.54,9.28,-14.88,0.21,137.57,-61.79,100.48,70.8
,,0,2025-11-18T17:46:50.578Z,16.17,9.82,-12.83,0.61,118.97,-9.9,98.5,65.97
,,0,2025-11-18T17:46:50.588Z,13.66,10.19,-9.04,0.98,129.34,7.66,108.83,69.46
,,0,2025-11-18T17:46:50.598Z,11.26,10.05,-4.96,1.04,146.48,-12.08,120.87,81.86
,,0,2025-11-18T17:46:50.608Z,10.25,9.52,-3.36,1.78,172.84,-49.5,132.39,99.49
,,0,2025-11-18T17:46:50.618Z,10.06,8.67,-4.22,2.84,188.69,-73.75,133.16,111.5
,,0,2025-11-18T17:46:50.628Z,11.1,8.32,-6.59,3.25,195.13,-81.49,130.1,120.45
,,0,2025-11-18T17:46:50.638Z,12.04,8.71,-7.53,3.51,195.9,-77.5,129.96,124.42
,,0,2025-11-18T17:46:50.648Z,12.07,8.74,-7.66,3.26,190.7,-65.85,130.86,122.09
,,0,2025-11-18T17:46:50.658Z,12.06,8.51,-8,2.99,187.54,-50.62,132.43,122.76
,,0,2025-11-18T17:46:50.668Z,12.13,8.17,-8.4,3.13,187.75,-39.27,132.02,127.59
,,0,2025-11-18T17:46:50.678Z,12.32,8.2,-8.73,2.91,185.05,-25.82,129.63,129.51
,,0,2025-11-18T17:46:50.688Z,12.51,8.42,-8.9,2.53,189.28,-15.62,134.23,132.54
,,0,2025-11-18T17:46:50.698Z,12.57,8.52,-8.82,2.74,192.52,-7.56,139.55,132.41
,,0,2025-11-18T17:46:50.708Z,12.2,8.19,-8.63,2.69,191.58,-2.6,141.39,129.25
,,0,2025-11-18T17:46:50.718Z,12.17,8.01,-8.72,2.81,189.72,7.63,142.73,124.76
,,0,2025-11-18T17:46:50.728Z,12.33,7.98,-8.91,2.99,188.72,18.73,143.97,120.57
,,0,2025-11-18T17:46:50.738Z,12.36,8.05,-8.89,2.97,188.72,28.69,144.95,117.4
,,0,2025-11-18T17:46:50.748Z,12.22,7.97,-8.66,3.29,188.29,35,146.48,113.01
,,0,2025-11-18T17:46:50.758Z,11.82,8.04,-8.07,3.16,190.57,34.94,149.18,113.33
,,0,2025-11-18T17:46:50.768Z,11.57,7.9,-7.72,3.42,193.1,36.59,151.45,114.07
,,0,2025-11-18T17:46:50.778Z,11.4,7.45,-7.94,3.36,193.56,35.44,153.99,111.79
,,0,2025-11-18T17:46:50.788Z,11.57,7.29,-8.15,3.78,194.05,37.27,154.76,110.97
,,0,2025-11-18T17:46:50.798Z,11.45,7.03,-8.19,3.83,193.99,40.37,154.03,110.81
,,0,2025-11-18T17:46:50.808Z,11.59,6.92,-8.36,4.08,193.24,45.4,152.75,109.31
,,0,2025-11-18T17:46:50.818Z,11.07,6.49,-8.01,4.04,192.72,47.33,151.94,108.7
,,0,2025-11-18T17:46:50.828Z,10.13,5.94,-7.26,3.82,189.03,45.2,149.08,107.08
,,0,2025-11-18T17:46:50.838Z,9.31,5.61,-6.4,3.75,187.29,37.13,147.06,109.88
,,0,2025-11-18T17:46:50.848Z,9.65,5.39,-6.84,4.16,183.34,31.47,143.88,109.2
,,0,2025-11-18T17:46:50.858Z,10.31,5.26,-7.61,4.55,178.47,29.05,140.59,106.02
,,0,2025-11-18T17:46:50.868Z,10.26,4.69,-7.89,4.58,174.46,35.34,135.31,104.31
,,0,2025-11-18T17:46:50.878Z,10.15,4.51,-7.95,4.41,174.29,39.73,134.18,103.89
,,0,2025-11-18T17:46:50.888Z,8.48,3.93,-6.5,3.77,170.69,39.03,131.5,101.59
,,0,2025-11-18T17:46:50.898Z,8.69,3.81,-6.67,4.06,167.58,39.86,128.04,100.5
,,0,2025-11-18T17:46:50.908Z,9.47,3.53,-7.57,4.45,163.21,36.53,124.34,99.21
,,0,2025-11-18T17:46:50.918Z,9.8,3.54,-7.64,5,161.04,35.12,122,99.08
,,0,2025-11-18T17:46:50.928Z,9.62,3.28,-7.43,5.17,157.55,31.39,119.46,97.8
,,0,2025-11-18T17:46:50.938Z,9.08,2.9,-7.04,4.94,153.77,26.56,116.41,96.89
,,0,2025-11-18T17:46:50.948Z,7.89,2.67,-5.99,4.38,154.96,14.6,117.44,100.05
,,0,2025-11-18T17:46:50.958Z,7.36,1.92,-5.62,4.35,155.21,6.55,117.45,101.26
,,0,2025-11-18T17:46:50.968Z,8.69,1.56,-6.9,5.04,152.75,9.88,115.81,99.11
,,0,2025-11-18T17:46:50.978Z,9.79,1.23,-7.99,5.51,151.69,15.79,113.38,99.52
,,0,2025-11-18T17:46:50.988Z,10.01,0.8,-8.26,5.6,147.54,22.39,110.09,95.64
,,0,2025-11-18T17:46:50.998Z,8.77,0.56,-7.07,5.16,145.11,22.34,108.5,93.74
,,0,2025-11-18T17:46:51.008Z,8.08,0.16,-6.19,5.18,143.38,16.44,108.08,92.77
,,0,2025-11-18T17:46:51.018Z,8.7,0.03,-6.6,5.66,146.33,8.95,109.87,96.24
,,0,2025-11-18T17:46:51.028Z,8.84,-0.1,-6.6,5.88,153.71,-10.06,113.28,103.4
,,0,2025-11-18T17:46:51.038Z,8.11,-1.09,-5.9,5.45,162.86,-30.22,116.83,109.37
,,0,2025-11-18T17:46:51.048Z,9.22,-1.98,-7.02,5.65,158.37,-30.09,114.99,104.65
,,0,2025-11-18T17:46:51.058Z,11,-2.11,-8.9,6.11,151.67,-13.31,110.96,102.53
,,0,2025-11-18T17:46:51.068Z,11.75,-2.29,-9.43,6.62,147.8,1.96,105.4,103.6
,,0,2025-11-18T17:46:51.078Z,10.92,-2.71,-8.38,6.46,142.95,11.95,101.46,99.99
,,0,2025-11-18T17:46:51.088Z,10.73,-3.36,-8.23,6.01,138.91,18.5,100.1,94.51
,,0,2025-11-18T17:46:51.098Z,11.5,-3.8,-8.92,6.2,138.53,29.19,98.18,93.27
,,0,2025-11-18T17:46:51.108Z,11.51,-4.27,-8.53,6.43,143.05,25.78,99.56,99.43
,,0,2025-11-18T17:46:51.118Z,12.09,-4.96,-8.61,6.88,142.01,28.47,96.08,100.63
,,0,2025-11-18T17:46:51.128Z,12.66,-5.22,-9.09,7.1,141.57,31.76,94.74,100.29
,,0,2025-11-18T17:46:51.138Z,12.82,-5.65,-8.57,7.67,140.76,30.08,94.03,100.34
,,0,2025-11-18T17:46:51.148Z,13.27,-5.54,-9.12,7.89,139.19,33.15,91.15,99.83
,,0,2025-11-18T17:46:51.158Z,13.42,-6.31,-8.82,7.9,144.59,35.81,95.06,102.89
,,0,2025-11-18T17:46:51.168Z,14.04,-7.25,-8.98,7.99,148.7,34.52,99.47,105.01
,,0,2025-11-18T17:46:51.178Z,14.47,-7.88,-9.04,8.1,152.68,28.91,101.67,110.18
,,0,2025-11-18T17:46:51.188Z,14.69,-8.07,-9.3,8,160.01,24.02,106.94,116.58
,,0,2025-11-18T17:46:51.198Z,15.27,-8.49,-9.76,8.12,166.37,23.53,110.75,121.91
,,0,2025-11-18T17:46:51.208Z,15.56,-8.84,-10.09,7.89,169.84,27.67,112.65,124.06
,,0,2025-11-18T17:46:51.218Z,15.46,-9.23,-9.75,7.65,172.84,31.27,114.5,125.64
,,0,2025-11-18T17:46:51.228Z,15.59,-9.84,-9.64,7.32,175.2,29.09,116.24,127.82
,,0,2025-11-18T17:46:51.239Z,15.51,-10.37,-9.2,6.95,179.82,21.25,119.21,132.93
,,0,2025-11-18T17:46:51.248Z,15.46,-11.3,-8.61,6.07,186.83,9.47,122.18,141.02
,,0,2025-11-18T17:46:51.258Z,16.18,-12.18,-9.11,5.52,193.81,-1.4,124.02,148.92
,,0,2025-11-18T17:46:51.268Z,16.64,-12.72,-9.57,4.86,195.88,-8.73,122.44,152.65
,,0,2025-11-18T17:46:51.278Z,16.79,-12.97,-9.64,4.54,197.74,-13.6,119.95,156.61
,,0,2025-11-18T17:46:51.288Z,17.05,-13.43,-9.68,4.07,200.62,-21.07,118.4,160.59
,,0,2025-11-18T17:46:51.298Z,17.71,-14.02,-10.09,3.94,202.53,-23.91,116.57,163.89
,,0,2025-11-18T17:46:51.308Z,18.03,-14.45,-10.12,3.71,207.14,-31.29,116.69,168.25
,,0,2025-11-18T17:46:51.318Z,18.17,-14.86,-9.92,3.28,211.59,-39.97,114.69,173.26
,,0,2025-11-18T17:46:51.328Z,18.27,-15.19,-9.78,2.75,220.49,-54.53,114.08,180.63
,,0,2025-11-18T17:46:51.338Z,18.73,-15.82,-9.79,2.13,233.3,-73.21,116.41,188.46
,,0,2025-11-18T17:46:51.348Z,19.15,-16.27,-10.02,1.31,248.38,-91.82,119.32,197.54
,,0,2025-11-18T17:46:51.358Z,19.21,-16.08,-10.51,0.34,263.62,-110.59,121.27,206.3
,,0,2025-11-18T17:46:51.368Z,20.03,-16.25,-11.68,-0.9,269.02,-115.98,118.91,211.61
,,0,2025-11-18T17:46:51.378Z,19.91,-16.2,-11.39,-2.02,276,-125.66,118.77,215.12
,,0,2025-11-18T17:46:51.388Z,20,-15.81,-11.92,-2.79,281.87,-134.69,123.29,214.73
,,0,2025-11-18T17:46:51.398Z,20.82,-17,-11.36,-3.88,296.92,-154.58,117.69,224.54
,,0,2025-11-18T17:46:51.408Z,20.41,-16.08,-11.72,-4.54,314.69,-177.24,123.85,228.64
,,0,2025-11-18T17:46:51.418Z,20.53,-16.03,-11.56,-5.58,331.58,-201.2,123.05,233.07
,,0,2025-11-18T17:46:51.428Z,20.59,-15.74,-11.37,-6.87,355.46,-230.15,122.13,241.81
,,0,2025-11-18T17:46:51.438Z,21.13,-15.2,-12.29,-8.04,368.47,-248.18,115.1,246.84
,,0,2025-11-18T17:46:51.448Z,21.53,-14.4,-12.97,-9.38,368.82,-250.14,104.37,250.13
,,0,2025-11-18T17:46:51.458Z,21.05,-13.27,-12.49,-10.55,367.3,-250.14,98.87,250.13
,,0,2025-11-18T17:46:51.468Z,20.81,-11.8,-12.1,-12.15,365.88,-250.14,93.46,250.13
,,0,2025-11-18T17:46:51.478Z,20.68,-10.93,-11.06,-13.63,363.94,-250.14,85.54,250.13
,,0,2025-11-18T17:46:51.488Z,20.45,-10.2,-10.21,-14.49,362.74,-250.14,80.31,250.13
,,0,2025-11-18T17:46:51.498Z,20.33,-9.62,-9.05,-15.45,360.64,-250.14,70.18,250.13
,,0,2025-11-18T17:46:51.508Z,20.09,-7.14,-10.04,-15.86,349.2,-250.14,63.14,235.34
,,0,2025-11-18T17:46:51.518Z,20.06,-7.63,-8.24,-16.62,343.16,-250.14,50.09,229.52
,,0,2025-11-18T17:46:51.528Z,19.3,-4.73,-7.01,-17.35,342.08,-250.14,35.82,230.57
,,0,2025-11-18T17:46:51.538Z,19.49,-2.6,-7.44,-17.83,333.7,-250.14,28.66,219.01
,,0,2025-11-18T17:46:51.548Z,19.83,-0.41,-4.02,-19.41,327.95,-250.14,27.24,210.33
,,0,2025-11-18T17:46:51.558Z,20.9,1.64,-7.02,-19.62,317.85,-250.14,23.53,194.69
,,0,2025-11-18T17:46:51.568Z,22.47,5.21,-9.64,-19.62,296.31,-250.14,27.21,156.5
,,0,2025-11-18T17:46:51.578Z,21.72,7.77,-5.13,-19.62,282.29,-250.14,39.37,124.79
,,0,2025-11-18T17:46:51.588Z,23.35,10.83,-6.55,-19.62,270.94,-250.14,44.58,94.08
,,0,2025-11-18T17:46:51.598Z,25.91,15.6,-6.56,-19.62,258.16,-250.14,39.38,50.29
,,0,2025-11-18T17:46:51.608Z,28.26,19.62,-5.36,-19.62,252.39,-250.14,32.09,-10
,,0,2025-11-18T17:46:51.618Z,28.15,19.62,-4.77,-19.62,265.99,-250.14,2.99,-90.41
,,0,2025-11-18T17:46:51.628Z,27.91,19.62,-2.99,-19.62,305.76,-250.14,-44.02,-170.24
,,0,2025-11-18T17:46:51.638Z,27.76,19.62,-0.8,-19.62,366.98,-250.14,-97.66,-250.14
,,0,2025-11-18T17:46:51.648Z,27.75,19.62,0.54,-19.62,385.78,-250.14,-153.91,-250.14
,,0,2025-11-18T17:46:51.658Z,27.79,19.62,-1.47,-19.62,417.58,-250.14,-221.89,-250.14
,,0,2025-11-18T17:46:51.668Z,28.03,19.62,-3.99,-19.62,433.25,-250.14,-250.14,-250.14
,,0,2025-11-18T17:46:51.678Z,28.52,19.62,-6.6,-19.62,433.25,-250.14,-250.14,-250.14
